trials.thisRepN,trials.thisTrialN,trials.thisN,trials.thisIndex,thisRow.t,notes,trial.started,num_distr,fixation.started,target.started,mouse.started,trial.stopped,mouse.x,mouse.y,mouse.leftButton,mouse.midButton,mouse.rightButton,mouse.time,mouse.clicked_name,participant,session,date,expName,psychopyVersion,frameRate,expStart,
0,0,0,0,0.054503400111570954,,0.009256200166419148,5,0.054503400111570954,0.054503400111570954,0.034928099950775504,1.4101897000800818,[0.012],[0.138],[1],[0],[0],[1.3741915998980403],['target'],160453,001,2024-10-01_23h48.14.046,VisualSearchTask,2024.1.5,None,2024-10-01 23h48.19.809534 +0530,
1,0,1,0,1.5561201001983136,,1.4168229000642896,5,1.5561201001983136,1.5561201001983136,0.11867169989272952,2.9281972001772374,[0.396],[-0.012],[1],[0],[0],[1.3932158998213708],['target'],160453,001,2024-10-01_23h48.14.046,VisualSearchTask,2024.1.5,None,2024-10-01 23h48.19.809534 +0530,
2,0,2,0,3.008412500144914,,2.9363874001428485,10,3.008412500144914,3.008412500144914,0.04200599994510412,4.4953074001241475,[-0.226],[0.3],[1],[0],[0],[1.5179833001457155],['target'],160453,001,2024-10-01_23h48.14.046,VisualSearchTask,2024.1.5,None,2024-10-01 23h48.19.809534 +0530,
3,0,3,0,4.559744500089437,,4.506417900091037,5,4.559744500089437,4.559744500089437,0.03241529990918934,5.767877000151202,[0.108],[-0.282],[1],[0],[0],[1.2313663999084383],['target'],160453,001,2024-10-01_23h48.14.046,VisualSearchTask,2024.1.5,None,2024-10-01 23h48.19.809534 +0530,
4,0,4,0,5.811603500042111,,5.771308000199497,5,5.811603500042111,5.811603500042111,0.021355199860408902,7.030949300155044,[-0.48],[-0.164],[1],[0],[0],[1.2386771000456065],['target'],160453,001,2024-10-01_23h48.14.046,VisualSearchTask,2024.1.5,None,2024-10-01 23h48.19.809534 +0530,
5,0,5,0,7.0624140000436455,,7.0338972001336515,5,7.0624140000436455,7.0624140000436455,0.01521579991094768,8.301660800119862,[-0.088],[0.004],[1],[0],[0],[1.252527300035581],['target'],160453,001,2024-10-01_23h48.14.046,VisualSearchTask,2024.1.5,None,2024-10-01 23h48.19.809534 +0530,
6,0,6,0,8.34757970017381,,8.306895700050518,5,8.34757970017381,8.34757970017381,0.022165799979120493,9.501557700103149,[-0.368],[-0.106],[1],[0],[0],[1.1731355001684278],[],160453,001,2024-10-01_23h48.14.046,VisualSearchTask,2024.1.5,None,2024-10-01 23h48.19.809534 +0530,
7,0,7,0,9.531639800174162,,9.50591960013844,5,9.531639800174162,9.531639800174162,0.015805399976670742,10.776069500017911,[-0.078],[-0.024],[1],[0],[0],[1.2541831999551505],['target'],160453,001,2024-10-01_23h48.14.046,VisualSearchTask,2024.1.5,None,2024-10-01 23h48.19.809534 +0530,
8,0,8,0,10.83490820019506,,10.781974400160834,5,10.83490820019506,10.83490820019506,0.03208809997886419,12.171008200151846,[-0.284],[0.344],[1],[0],[0],[1.3577494998462498],['target'],160453,001,2024-10-01_23h48.14.046,VisualSearchTask,2024.1.5,None,2024-10-01 23h48.19.809534 +0530,
9,0,9,0,12.235219100024551,,12.176561600062996,10,12.235219100024551,12.235219100024551,0.03342620003968477,14.205983000108972,[0.35],[-0.34],[1],[0],[0],[1.9967793999239802],['target'],160453,001,2024-10-01_23h48.14.046,VisualSearchTask,2024.1.5,None,2024-10-01 23h48.19.809534 +0530,
10,0,10,0,14.253345100209117,,14.20891570020467,10,14.253345100209117,14.253345100209117,0.02555050002411008,15.608198700007051,[0.198],[-0.008],[1],[0],[0],[1.3737848000600934],['target'],160453,001,2024-10-01_23h48.14.046,VisualSearchTask,2024.1.5,None,2024-10-01 23h48.19.809534 +0530,
11,0,11,0,15.63822040008381,,15.611187900183722,5,15.63822040008381,15.63822040008381,0.014975399943068624,17.094170700060204,[-0.278],[-0.366],[1],[0],[0],[1.4680453999899328],[],160453,001,2024-10-01_23h48.14.046,VisualSearchTask,2024.1.5,None,2024-10-01 23h48.19.809534 +0530,
12,0,12,0,17.173230500193313,,17.09955650009215,10,17.173230500193313,17.173230500193313,0.04786449996754527,18.6773215001449,[-0.516],[-0.45],[1],[0],[0],[1.5305835001636297],[],160453,001,2024-10-01_23h48.14.046,VisualSearchTask,2024.1.5,None,2024-10-01 23h48.19.809534 +0530,
13,0,13,0,18.725187400123104,,18.68020510021597,10,18.725187400123104,18.725187400123104,0.028199699940159917,20.04603820014745,[-0.248],[-0.33],[1],[0],[0],[1.3378259998280555],[],160453,001,2024-10-01_23h48.14.046,VisualSearchTask,2024.1.5,None,2024-10-01 23h48.19.809534 +0530,
14,0,14,0,20.076857100008056,,20.049022300168872,5,20.076857100008056,20.076857100008056,0.01460570003837347,21.398880100110546,[0.02],[-0.346],[1],[0],[0],[1.3352898000739515],['target'],160453,001,2024-10-01_23h48.14.046,VisualSearchTask,2024.1.5,None,2024-10-01 23h48.19.809534 +0530,
15,0,15,0,21.44511460000649,,21.404488500207663,5,21.44511460000649,21.44511460000649,0.018863500095903873,22.865061199991032,[0.306],[0.296],[1],[0],[0],[1.4425373000558466],[],160453,001,2024-10-01_23h48.14.046,VisualSearchTask,2024.1.5,None,2024-10-01 23h48.19.809534 +0530,
16,0,16,0,22.89632060006261,,22.868906300049275,5,22.89632060006261,22.89632060006261,0.015115200076252222,24.35061000008136,[-0.276],[0.336],[1],[0],[0],[1.4668825000990182],['target'],160453,001,2024-10-01_23h48.14.046,VisualSearchTask,2024.1.5,None,2024-10-01 23h48.19.809534 +0530,
17,0,17,0,24.41475940006785,,24.354132000124082,10,24.41475940006785,24.41475940006785,0.033999500097706914,25.769075200194493,[-0.108],[0.216],[1],[0],[0],[1.3812619999516755],['target'],160453,001,2024-10-01_23h48.14.046,VisualSearchTask,2024.1.5,None,2024-10-01 23h48.19.809534 +0530,
18,0,18,0,25.832668400136754,,25.773907700087875,10,25.832668400136754,25.832668400136754,0.032132199965417385,27.704254400217906,[0.428],[-0.346],[1],[0],[0],[1.898900199914351],['target'],160453,001,2024-10-01_23h48.14.046,VisualSearchTask,2024.1.5,None,2024-10-01 23h48.19.809534 +0530,
19,0,19,0,27.734830900095403,,27.707308300072327,5,27.734830900095403,27.734830900095403,0.01543550007045269,29.123082200065255,[0.106],[0.09],[1],[0],[0],[1.4004603999201208],[],160453,001,2024-10-01_23h48.14.046,VisualSearchTask,2024.1.5,None,2024-10-01 23h48.19.809534 +0530,
20,0,20,0,29.15305950003676,,29.127957800170407,5,29.15305950003676,29.15305950003676,0.017168000107631087,30.30683010001667,[-0.102],[-0.004],[1],[0],[0],[1.1623583999462426],['target'],160453,001,2024-10-01_23h48.14.046,VisualSearchTask,2024.1.5,None,2024-10-01 23h48.19.809534 +0530,
21,0,21,0,30.354495100211352,,30.31057390011847,10,30.354495100211352,30.354495100211352,0.02774050016887486,31.75919450004585,[0.188],[0.114],[1],[0],[0],[1.421260999981314],['target'],160453,001,2024-10-01_23h48.14.046,VisualSearchTask,2024.1.5,None,2024-10-01 23h48.19.809534 +0530,
22,0,22,0,31.78931700019166,,31.76218369998969,5,31.78931700019166,31.78931700019166,0.014497000025585294,33.210121500073,[0.268],[-0.364],[1],[0],[0],[1.4336681999266148],[],160453,001,2024-10-01_23h48.14.046,VisualSearchTask,2024.1.5,None,2024-10-01 23h48.19.809534 +0530,
23,0,23,0,33.25771310017444,,33.21350840013474,10,33.25771310017444,33.25771310017444,0.027334099868312478,34.67874770006165,[-0.21],[0.108],[1],[0],[0],[1.438122799852863],['target'],160453,001,2024-10-01_23h48.14.046,VisualSearchTask,2024.1.5,None,2024-10-01 23h48.19.809534 +0530,
24,0,24,0,34.72599330008961,,34.682703900150955,10,34.72599330008961,34.72599330008961,0.02838810021057725,36.36424930021167,[0.18],[-0.372],[1],[0],[0],[1.6536340999882668],[],160453,001,2024-10-01_23h48.14.046,VisualSearchTask,2024.1.5,None,2024-10-01 23h48.19.809534 +0530,
25,0,25,0,36.41104520019144,,36.36718250019476,10,36.41104520019144,36.41104520019144,0.02633829996921122,37.86523770005442,[-0.252],[-0.02],[1],[0],[0],[1.4718398000113666],['target'],160453,001,2024-10-01_23h48.14.046,VisualSearchTask,2024.1.5,None,2024-10-01 23h48.19.809534 +0530,
26,0,26,0,37.89637400000356,,37.86814950010739,5,37.89637400000356,37.89637400000356,0.014554500114172697,39.017263300018385,[-0.204],[0.23],[1],[0],[0],[1.134529799921438],['target'],160453,001,2024-10-01_23h48.14.046,VisualSearchTask,2024.1.5,None,2024-10-01 23h48.19.809534 +0530,
27,0,27,0,39.09761470020749,,39.025279300054535,10,39.09761470020749,39.09761470020749,0.05893990001641214,40.35263540013693,[0.094],[0.144],[1],[0],[0],[1.2694631998892874],['target'],160453,001,2024-10-01_23h48.14.046,VisualSearchTask,2024.1.5,None,2024-10-01 23h48.19.809534 +0530,
28,0,28,0,40.399391300044954,,40.35787120019086,5,40.399391300044954,40.399391300044954,0.018117999890819192,42.20396660012193,[0.344],[-0.424],[1],[0],[0],[1.8286128998734057],['target'],160453,001,2024-10-01_23h48.14.046,VisualSearchTask,2024.1.5,None,2024-10-01 23h48.19.809534 +0530,
29,0,29,0,42.23454500013031,,42.20695610018447,5,42.23454500013031,42.23454500013031,0.014243599958717823,43.505101500079036,[0.18],[0.338],[1],[0],[0],[1.2840016998816282],['target'],160453,001,2024-10-01_23h48.14.046,VisualSearchTask,2024.1.5,None,2024-10-01 23h48.19.809534 +0530,
30,0,30,0,43.55236360011622,,43.509690300095826,10,43.55236360011622,43.55236360011622,0.02991809998638928,45.090078700101,[-0.31],[0.004],[1],[0],[0],[1.5511105000041425],[],160453,001,2024-10-01_23h48.14.046,VisualSearchTask,2024.1.5,None,2024-10-01 23h48.19.809534 +0530,
31,0,31,0,45.137402300024405,,45.09308340004645,10,45.137402300024405,45.137402300024405,0.027827000012621284,46.82570370007306,[-0.488],[0.402],[1],[0],[0],[1.7051194999366999],['target'],160453,001,2024-10-01_23h48.14.046,VisualSearchTask,2024.1.5,None,2024-10-01 23h48.19.809534 +0530,
32,0,32,0,46.856130900094286,,46.8286565002054,5,46.856130900094286,46.856130900094286,0.01472239987924695,48.11051800008863,[-0.01],[0.284],[1],[0],[0],[1.267205199925229],['target'],160453,001,2024-10-01_23h48.14.046,VisualSearchTask,2024.1.5,None,2024-10-01 23h48.19.809534 +0530,
33,0,33,0,48.14067060011439,,48.11399030010216,5,48.14067060011439,48.14067060011439,0.015470100101083517,49.56244340003468,[-0.216],[0.1],[1],[0],[0],[1.4332059000153095],['target'],160453,001,2024-10-01_23h48.14.046,VisualSearchTask,2024.1.5,None,2024-10-01 23h48.19.809534 +0530,
34,0,34,0,49.62614580010995,,49.56559500005096,10,49.62614580010995,49.62614580010995,0.03127110004425049,50.830296100117266,[-0.092],[0.244],[1],[0],[0],[1.2336064002010971],['target'],160453,001,2024-10-01_23h48.14.046,VisualSearchTask,2024.1.5,None,2024-10-01 23h48.19.809534 +0530,
35,0,35,0,50.86047860002145,,50.83358280011453,5,50.86047860002145,50.86047860002145,0.016706200083717704,52.09749000007287,[0.412],[-0.206],[1],[0],[0],[1.2474665001500398],['target'],160453,001,2024-10-01_23h48.14.046,VisualSearchTask,2024.1.5,None,2024-10-01 23h48.19.809534 +0530,
36,0,36,0,52.12837380007841,,52.10110180010088,5,52.12837380007841,52.12837380007841,0.01573610003106296,53.36685140011832,[-0.518],[0.146],[1],[0],[0],[1.2503239000216126],[],160453,001,2024-10-01_23h48.14.046,VisualSearchTask,2024.1.5,None,2024-10-01 23h48.19.809534 +0530,
37,0,37,0,53.4468398001045,,53.372429500101134,10,53.4468398001045,53.4468398001045,0.04405119991861284,54.93437520018779,[0.384],[0.23],[1],[0],[0],[1.5186711000278592],['target'],160453,001,2024-10-01_23h48.14.046,VisualSearchTask,2024.1.5,None,2024-10-01 23h48.19.809534 +0530,
38,0,38,0,54.981513400096446,,54.9373409000691,10,54.981513400096446,54.981513400096446,0.025971800088882446,56.20287590008229,[0.302],[-0.038],[1],[0],[0],[1.2394147000741214],[],160453,001,2024-10-01_23h48.14.046,VisualSearchTask,2024.1.5,None,2024-10-01 23h48.19.809534 +0530,
39,0,39,0,56.300263800192624,,56.21100330003537,10,56.300263800192624,56.300263800192624,0.04960000002756715,57.70372049999423,[-0.266],[0.314],[1],[0],[0],[1.4442306999117136],['target'],160453,001,2024-10-01_23h48.14.046,VisualSearchTask,2024.1.5,None,2024-10-01 23h48.19.809534 +0530,
40,0,40,0,57.751612400170416,,57.70664370013401,10,57.751612400170416,57.751612400170416,0.026007500011473894,59.05542300012894,[0.238],[0.324],[1],[0],[0],[1.322863900102675],['target'],160453,001,2024-10-01_23h48.14.046,VisualSearchTask,2024.1.5,None,2024-10-01 23h48.19.809534 +0530,
41,0,41,0,59.10624870005995,,59.05983750009909,5,59.10624870005995,59.10624870005995,0.02025950001552701,60.525496600195765,[-0.196],[-0.424],[1],[0],[0],[1.4458367999177426],['target'],160453,001,2024-10-01_23h48.14.046,VisualSearchTask,2024.1.5,None,2024-10-01 23h48.19.809534 +0530,
42,0,42,0,60.571237600175664,,60.53174120001495,5,60.571237600175664,60.571237600175664,0.018842299934476614,62.042625800007954,[0.376],[0.014],[1],[0],[0],[1.4927052999846637],['target'],160453,001,2024-10-01_23h48.14.046,VisualSearchTask,2024.1.5,None,2024-10-01 23h48.19.809534 +0530,
43,0,43,0,62.12325240019709,,62.04814100009389,10,62.12325240019709,62.12325240019709,0.03910109982825816,63.710541300009936,[-0.068],[-0.176],[1],[0],[0],[1.6238313999492675],['target'],160453,001,2024-10-01_23h48.14.046,VisualSearchTask,2024.1.5,None,2024-10-01 23h48.19.809534 +0530,
44,0,44,0,63.77466450002976,,63.71715050004423,10,63.77466450002976,63.77466450002976,0.032229899894446135,65.46207460016012,[-0.276],[0.396],[1],[0],[0],[1.7135253997985274],[],160453,001,2024-10-01_23h48.14.046,VisualSearchTask,2024.1.5,None,2024-10-01 23h48.19.809534 +0530,
45,0,45,0,65.51032080012374,,65.46519400016405,10,65.51032080012374,65.51032080012374,0.026199799962341785,66.9649853000883,[0.274],[-0.25],[1],[0],[0],[1.4736976001877338],['target'],160453,001,2024-10-01_23h48.14.046,VisualSearchTask,2024.1.5,None,2024-10-01 23h48.19.809534 +0530,
46,0,46,0,67.01195590011775,,66.97054990008473,5,67.01195590011775,67.01195590011775,0.022756600053980947,68.28347230004147,[-0.304],[0.444],[1],[0],[0],[1.2908288000617176],['target'],160453,001,2024-10-01_23h48.14.046,VisualSearchTask,2024.1.5,None,2024-10-01 23h48.19.809534 +0530,
47,0,47,0,68.32999910018407,,68.28874450013973,10,68.32999910018407,68.32999910018407,0.028578000143170357,69.83468600013293,[-0.35],[0.118],[1],[0],[0],[1.517976500093937],['target'],160453,001,2024-10-01_23h48.14.046,VisualSearchTask,2024.1.5,None,2024-10-01 23h48.19.809534 +0530,
48,0,48,0,69.88223430002108,,69.8398948002141,5,69.88223430002108,69.88223430002108,0.020370699930936098,70.91806650022045,[-0.418],[0.034],[1],[0],[0],[1.058467200025916],['target'],160453,001,2024-10-01_23h48.14.046,VisualSearchTask,2024.1.5,None,2024-10-01 23h48.19.809534 +0530,
49,0,49,0,70.94905100017786,,70.92126560001634,5,70.94905100017786,70.94905100017786,0.01570700015872717,72.28662980021909,[-0.186],[0.052],[1],[0],[0],[1.3498855999205261],['target'],160453,001,2024-10-01_23h48.14.046,VisualSearchTask,2024.1.5,None,2024-10-01 23h48.19.809534 +0530,
50,0,50,0,72.3173085001763,,72.2907414000947,5,72.3173085001763,72.3173085001763,0.01965950010344386,73.45421050000004,[-0.212],[-0.164],[1],[0],[0],[1.1442261000629514],['target'],160453,001,2024-10-01_23h48.14.046,VisualSearchTask,2024.1.5,None,2024-10-01 23h48.19.809534 +0530,
51,0,51,0,73.50240560015664,,73.46000030008145,5,73.50240560015664,73.50240560015664,0.019299899926409125,74.74071190017276,[0.032],[-0.064],[1],[0],[0],[1.2622955001424998],['target'],160453,001,2024-10-01_23h48.14.046,VisualSearchTask,2024.1.5,None,2024-10-01 23h48.19.809534 +0530,
52,0,52,0,74.77008700021543,,74.74399680015631,5,74.77008700021543,74.77008700021543,0.015015499899163842,76.29135500011034,[-0.266],[-0.438],[1],[0],[0],[1.5326210998464376],['target'],160453,001,2024-10-01_23h48.14.046,VisualSearchTask,2024.1.5,None,2024-10-01 23h48.19.809534 +0530,
53,0,53,0,76.32179560000077,,76.29440440004691,5,76.32179560000077,76.32179560000077,0.01487359986640513,78.20980350021273,[0.414],[0.278],[1],[0],[0],[1.9007256000768393],['target'],160453,001,2024-10-01_23h48.14.046,VisualSearchTask,2024.1.5,None,2024-10-01 23h48.19.809534 +0530,
54,0,54,0,78.24098180001602,,78.2125975000672,5,78.24098180001602,78.24098180001602,0.013846199959516525,79.96205210010521,[-0.458],[0.092],[1],[0],[0],[1.7357403000351042],[],160453,001,2024-10-01_23h48.14.046,VisualSearchTask,2024.1.5,None,2024-10-01 23h48.19.809534 +0530,
55,0,55,0,79.99234310002066,,79.96554310014471,5,79.99234310002066,79.99234310002066,0.015383000019937754,81.11341030010954,[-0.06],[0.284],[1],[0],[0],[1.1327488000970334],[],160453,001,2024-10-01_23h48.14.046,VisualSearchTask,2024.1.5,None,2024-10-01 23h48.19.809534 +0530,
56,0,56,0,81.17744470015168,,81.11876670015045,10,81.17744470015168,81.17744470015168,0.03342490014620125,82.44750750018284,[-0.424],[0.192],[1],[0],[0],[1.2960582999512553],[],160453,001,2024-10-01_23h48.14.046,VisualSearchTask,2024.1.5,None,2024-10-01 23h48.19.809534 +0530,
57,0,57,0,82.49556330009364,,82.45051080011763,10,82.49556330009364,82.49556330009364,0.030099099967628717,83.51695420010947,[-0.316],[-0.006],[1],[0],[0],[1.0362418999429792],['target'],160453,001,2024-10-01_23h48.14.046,VisualSearchTask,2024.1.5,None,2024-10-01 23h48.19.809534 +0530,
58,0,58,0,83.5968247000128,,83.5223090001382,10,83.5968247000128,83.5968247000128,0.04887629998847842,84.83467740006745,[0.182],[-0.076],[1],[0],[0],[1.2645012999419123],[],160453,001,2024-10-01_23h48.14.046,VisualSearchTask,2024.1.5,None,2024-10-01 23h48.19.809534 +0530,
59,0,59,0,84.88158160005696,,84.84020250011235,5,84.88158160005696,84.88158160005696,0.01812259992584586,86.05387710011564,[0.062],[-0.25],[1],[0],[0],[1.1961236000061035],['target'],160453,001,2024-10-01_23h48.14.046,VisualSearchTask,2024.1.5,None,2024-10-01 23h48.19.809534 +0530,
60,0,60,0,86.15002450020984,,86.05997140007094,10,86.15002450020984,86.15002450020984,0.05973779992200434,87.41974340006709,[0.028],[0.374],[1],[0],[0],[1.3007765000220388],['target'],160453,001,2024-10-01_23h48.14.046,VisualSearchTask,2024.1.5,None,2024-10-01 23h48.19.809534 +0530,
61,0,61,0,87.48444240004756,,87.42511780001223,10,87.48444240004756,87.48444240004756,0.03884149994701147,88.9211853002198,[-0.352],[0.166],[1],[0],[0],[1.457824300043285],['target'],160453,001,2024-10-01_23h48.14.046,VisualSearchTask,2024.1.5,None,2024-10-01 23h48.19.809534 +0530,
62,0,62,0,89.00307490001433,,88.92671290016733,10,89.00307490001433,89.00307490001433,0.044962899992242455,90.49124490004033,[0.46],[-0.216],[1],[0],[0],[1.520239599980414],[],160453,001,2024-10-01_23h48.14.046,VisualSearchTask,2024.1.5,None,2024-10-01 23h48.19.809534 +0530,
63,0,63,0,90.53789050015621,,90.49671570002101,5,90.53789050015621,90.53789050015621,0.019155099987983704,91.65911740018055,[0.184],[0.192],[1],[0],[0],[1.143883700016886],['target'],160453,001,2024-10-01_23h48.14.046,VisualSearchTask,2024.1.5,None,2024-10-01 23h48.19.809534 +0530,
64,0,64,0,91.7057749000378,,91.66642800020054,5,91.7057749000378,91.7057749000378,0.01887379982508719,92.99369950010441,[-0.38],[-0.14],[1],[0],[0],[1.3092376999557018],['target'],160453,001,2024-10-01_23h48.14.046,VisualSearchTask,2024.1.5,None,2024-10-01 23h48.19.809534 +0530,
65,0,65,0,93.07372260000557,,92.99907990009524,10,93.07372260000557,93.07372260000557,0.05088659981265664,94.41178240021691,[0.516],[0.144],[1],[0],[0],[1.3625058000907302],[],160453,001,2024-10-01_23h48.14.046,VisualSearchTask,2024.1.5,None,2024-10-01 23h48.19.809534 +0530,
66,0,66,0,94.475491899997,,94.41733630001545,10,94.475491899997,94.475491899997,0.032268399838358164,95.52946710004471,[0.408],[0.054],[1],[0],[0],[1.0804753000847995],['target'],160453,001,2024-10-01_23h48.14.046,VisualSearchTask,2024.1.5,None,2024-10-01 23h48.19.809534 +0530,
67,0,67,0,95.61014430015348,,95.53501019999385,10,95.61014430015348,95.61014430015348,0.03848899994045496,96.94810080016032,[0.074],[0.228],[1],[0],[0],[1.3753694000188261],['target'],160453,001,2024-10-01_23h48.14.046,VisualSearchTask,2024.1.5,None,2024-10-01 23h48.19.809534 +0530,
68,0,68,0,97.0115993001964,,96.95378750003874,10,97.0115993001964,97.0115993001964,0.037082099821418524,98.43369940016419,[0.064],[-0.416],[1],[0],[0],[1.4434804997872561],['target'],160453,001,2024-10-01_23h48.14.046,VisualSearchTask,2024.1.5,None,2024-10-01 23h48.19.809534 +0530,
69,0,69,0,98.47974590002559,,98.43912470014766,5,98.47974590002559,98.47974590002559,0.019785100128501654,99.8854953001719,[0.422],[-0.468],[1],[0],[0],[1.427170999813825],['target'],160453,001,2024-10-01_23h48.14.046,VisualSearchTask,2024.1.5,None,2024-10-01 23h48.19.809534 +0530,
70,0,70,0,99.9313742001541,,99.88967120018788,5,99.9313742001541,99.9313742001541,0.017918199999257922,101.02035060012713,[0.26],[0.098],[1],[0],[0],[1.113132300088182],['target'],160453,001,2024-10-01_23h48.14.046,VisualSearchTask,2024.1.5,None,2024-10-01 23h48.19.809534 +0530,
71,0,71,0,101.08229740010574,,101.02584030013531,10,101.08229740010574,101.08229740010574,0.03516190010122955,102.53695470001549,[-0.484],[0.12],[1],[0],[0],[1.4767136999871582],['target'],160453,001,2024-10-01_23h48.14.046,VisualSearchTask,2024.1.5,None,2024-10-01 23h48.19.809534 +0530,
72,0,72,0,102.56783690000884,,102.54009040002711,5,102.56783690000884,102.56783690000884,0.016281699994578958,103.98867190000601,[0.258],[0.372],[1],[0],[0],[1.4324791999533772],['target'],160453,001,2024-10-01_23h48.14.046,VisualSearchTask,2024.1.5,None,2024-10-01 23h48.19.809534 +0530,
73,0,73,0,104.0361449001357,,103.991694400087,5,104.0361449001357,104.0361449001357,0.015902499901130795,106.12468360015191,[0.314],[-0.498],[1],[0],[0],[2.1172454999759793],['target'],160453,001,2024-10-01_23h48.14.046,VisualSearchTask,2024.1.5,None,2024-10-01 23h48.19.809534 +0530,
74,0,74,0,106.18864280008711,,106.13021470000967,10,106.18864280008711,106.18864280008711,0.031799100106582046,107.82713130000047,[-0.212],[-0.1],[1],[0],[0],[1.665775400120765],['target'],160453,001,2024-10-01_23h48.14.046,VisualSearchTask,2024.1.5,None,2024-10-01 23h48.19.809534 +0530,
75,0,75,0,107.89024320011958,,107.83269120007753,10,107.89024320011958,107.89024320011958,0.03347130003385246,109.41377660003491,[0.166],[-0.42],[1],[0],[0],[1.5457532999571413],['target'],160453,001,2024-10-01_23h48.14.046,VisualSearchTask,2024.1.5,None,2024-10-01 23h48.19.809534 +0530,
76,0,76,0,109.47487340006046,,109.41668270016089,10,109.47487340006046,109.47487340006046,0.03524410002864897,110.72843580017798,[0.238],[0.354],[1],[0],[0],[1.2765915000345558],[],160453,001,2024-10-01_23h48.14.046,VisualSearchTask,2024.1.5,None,2024-10-01 23h48.19.809534 +0530,
77,0,77,0,110.79339040000923,,110.73224370018579,10,110.79339040000923,110.79339040000923,0.04637180012650788,111.94671840011142,[0.036],[0.164],[1],[0],[0],[1.1683149000164121],['target'],160453,001,2024-10-01_23h48.14.046,VisualSearchTask,2024.1.5,None,2024-10-01 23h48.19.809534 +0530,
78,0,78,0,112.02821820019744,,111.95280870003626,10,112.02821820019744,112.02821820019744,0.04154219990596175,113.26534859999083,[0.238],[0.12],[1],[0],[0],[1.271903300192207],[],160453,001,2024-10-01_23h48.14.046,VisualSearchTask,2024.1.5,None,2024-10-01 23h48.19.809534 +0530,
79,0,79,0,113.31256660004146,,113.26839189999737,5,113.31256660004146,113.31256660004146,0.022036399925127625,114.40152300009504,[-0.444],[0.228],[1],[0],[0],[1.1111661999020725],[],160453,001,2024-10-01_23h48.14.046,VisualSearchTask,2024.1.5,None,2024-10-01 23h48.19.809534 +0530,
80,0,80,0,114.44740370009094,,114.40708760009147,5,114.44740370009094,114.44740370009094,0.018273600144311786,115.66881820000708,[-0.382],[-0.104],[1],[0],[0],[1.2442030999809504],['target'],160453,001,2024-10-01_23h48.14.046,VisualSearchTask,2024.1.5,None,2024-10-01 23h48.19.809534 +0530,
81,0,81,0,115.76551600010134,,115.67487390013412,10,115.76551600010134,115.76551600010134,0.054755899822339416,117.20296230004169,[0.156],[0.342],[1],[0],[0],[1.4740393001120538],['target'],160453,001,2024-10-01_23h48.14.046,VisualSearchTask,2024.1.5,None,2024-10-01 23h48.19.809534 +0530,
82,0,82,0,117.25077280006371,,117.20876770000905,5,117.25077280006371,117.25077280006371,0.0232122999150306,118.45503270020708,[-0.458],[0.012],[1],[0],[0],[1.2237672000192106],['target'],160453,001,2024-10-01_23h48.14.046,VisualSearchTask,2024.1.5,None,2024-10-01 23h48.19.809534 +0530,
83,0,83,0,118.53528050007299,,118.46104530012235,10,118.53528050007299,118.53528050007299,0.05288300011307001,120.00686420011334,[-0.394],[0.284],[1],[0],[0],[1.4941845999564976],['target'],160453,001,2024-10-01_23h48.14.046,VisualSearchTask,2024.1.5,None,2024-10-01 23h48.19.809534 +0530,
84,0,84,0,120.07030830020085,,120.01234610006213,10,120.07030830020085,120.07030830020085,0.03341039991937578,122.09217469999567,[0.188],[-0.3],[1],[0],[0],[2.047065499937162],['target'],160453,001,2024-10-01_23h48.14.046,VisualSearchTask,2024.1.5,None,2024-10-01 23h48.19.809534 +0530,
85,0,85,0,122.17256930004805,,122.09647710015997,10,122.17256930004805,122.17256930004805,0.044967700028792024,123.44396520010196,[0.006],[-0.42],[1],[0],[0],[1.303050999995321],['target'],160453,001,2024-10-01_23h48.14.046,VisualSearchTask,2024.1.5,None,2024-10-01 23h48.19.809534 +0530,
86,0,86,0,123.49046070012264,,123.44710960006341,5,123.49046070012264,123.49046070012264,0.019574700156226754,124.9295103000477,[-0.118],[0.396],[1],[0],[0],[1.4629681000951678],['target'],160453,001,2024-10-01_23h48.14.046,VisualSearchTask,2024.1.5,None,2024-10-01 23h48.19.809534 +0530,
87,0,87,0,124.99223110009916,,124.93503270018846,10,124.99223110009916,124.99223110009916,0.03317129984498024,126.17911230004393,[0.218],[0.108],[1],[0],[0],[1.211531899869442],['target'],160453,001,2024-10-01_23h48.14.046,VisualSearchTask,2024.1.5,None,2024-10-01 23h48.19.809534 +0530,
88,0,88,0,126.24364970019087,,126.18228250020184,10,126.24364970019087,126.24364970019087,0.03125849994830787,127.2964031000156,[0.006],[0.204],[1],[0],[0],[1.082916900049895],['target'],160453,001,2024-10-01_23h48.14.046,VisualSearchTask,2024.1.5,None,2024-10-01 23h48.19.809534 +0530,
89,0,89,0,127.36217229999602,,127.30198660003953,10,127.36217229999602,127.36217229999602,0.032216900028288364,128.5652981000021,[0.456],[0.064],[1],[0],[0],[1.2319130999967456],['target'],160453,001,2024-10-01_23h48.14.046,VisualSearchTask,2024.1.5,None,2024-10-01 23h48.19.809534 +0530,
90,0,90,0,128.61262670019642,,128.5683118000161,10,128.61262670019642,128.61262670019642,0.028722699964419007,129.79985670000315,[-0.156],[-0.186],[1],[0],[0],[1.2030838001519442],[],160453,001,2024-10-01_23h48.14.046,VisualSearchTask,2024.1.5,None,2024-10-01 23h48.19.809534 +0530,
91,0,91,0,129.83075610012747,,129.8028558001388,5,129.83075610012747,129.83075610012747,0.014807499945163727,131.08533999999054,[0.066],[0.304],[1],[0],[0],[1.2677104000467807],['target'],160453,001,2024-10-01_23h48.14.046,VisualSearchTask,2024.1.5,None,2024-10-01 23h48.19.809534 +0530,
92,0,92,0,131.11533570010215,,131.09025110001676,5,131.11533570010215,131.11533570010215,0.017185900127515197,132.21920730010606,[0.402],[0.13],[1],[0],[0],[1.1123560001142323],['target'],160453,001,2024-10-01_23h48.14.046,VisualSearchTask,2024.1.5,None,2024-10-01 23h48.19.809534 +0530,
93,0,93,0,132.28361050016247,,132.2224942999892,10,132.28361050016247,132.28361050016247,0.03892010007984936,133.68750100000761,[0.124],[-0.216],[1],[0],[0],[1.4264159998856485],['target'],160453,001,2024-10-01_23h48.14.046,VisualSearchTask,2024.1.5,None,2024-10-01 23h48.19.809534 +0530,
94,0,94,0,133.71834110002965,,133.6905139000155,5,133.71834110002965,133.71834110002965,0.014562499942258,135.25697780004703,[-0.404],[0.146],[1],[0],[0],[1.552013099892065],['target'],160453,001,2024-10-01_23h48.14.046,VisualSearchTask,2024.1.5,None,2024-10-01 23h48.19.809534 +0530,
95,0,95,0,135.32080140011385,,135.26059550000355,10,135.32080140011385,135.32080140011385,0.03654249990358949,136.2571243001148,[-0.444],[0.092],[1],[0],[0],[0.9603440000209957],['target'],160453,001,2024-10-01_23h48.14.046,VisualSearchTask,2024.1.5,None,2024-10-01 23h48.19.809534 +0530,
96,0,96,0,136.3217878001742,,136.26010100007989,10,136.3217878001742,136.3217878001742,0.030425499891862273,138.6947690001689,[0.428],[0.482],[1],[0],[0],[2.404237800044939],['target'],160453,001,2024-10-01_23h48.14.046,VisualSearchTask,2024.1.5,None,2024-10-01 23h48.19.809534 +0530,
97,0,97,0,138.74112100014463,,138.70055030006915,5,138.74112100014463,138.74112100014463,0.01876770006492734,139.79505140008405,[0.47],[0.276],[1],[0],[0],[1.0765263000503182],['target'],160453,001,2024-10-01_23h48.14.046,VisualSearchTask,2024.1.5,None,2024-10-01 23h48.19.809534 +0530,
98,0,98,0,139.8604870000854,,139.79848830006085,10,139.8604870000854,139.8604870000854,0.033486499916762114,140.83039940008894,[0.444],[0.36],[1],[0],[0],[0.9985845999326557],['target'],160453,001,2024-10-01_23h48.14.046,VisualSearchTask,2024.1.5,None,2024-10-01 23h48.19.809534 +0530,
99,0,99,0,140.87652200018056,,140.83605650020763,5,140.87652200018056,140.87652200018056,0.0203704999294132,142.0146688001696,[0.344],[0.308],[1],[0],[0],[1.158967199968174],[],160453,001,2024-10-01_23h48.14.046,VisualSearchTask,2024.1.5,None,2024-10-01 23h48.19.809534 +0530,
100,0,100,0,142.0779380002059,,142.02007830003276,10,142.0779380002059,142.0779380002059,0.03377899993211031,143.48196490015835,[-0.33],[0.4],[1],[0],[0],[1.428834700025618],['target'],160453,001,2024-10-01_23h48.14.046,VisualSearchTask,2024.1.5,None,2024-10-01 23h48.19.809534 +0530,
101,0,101,0,143.5290980001446,,143.48491610004567,10,143.5290980001446,143.5290980001446,0.028411800041794777,144.6995039000176,[-0.314],[0.158],[1],[0],[0],[1.186340100131929],['target'],160453,001,2024-10-01_23h48.14.046,VisualSearchTask,2024.1.5,None,2024-10-01 23h48.19.809534 +0530,
102,0,102,0,144.73038409999572,,144.70334510016255,5,144.73038409999572,144.73038409999572,0.01572089991532266,146.38603380019777,[-0.318],[-0.074],[1],[0],[0],[1.667188199935481],['target'],160453,001,2024-10-01_23h48.14.046,VisualSearchTask,2024.1.5,None,2024-10-01 23h48.19.809534 +0530,
103,0,103,0,146.44905200018547,,146.39147520018741,10,146.44905200018547,146.44905200018547,0.03195990016683936,148.38669670000672,[0.452],[-0.236],[1],[0],[0],[1.9640323999337852],['target'],160453,001,2024-10-01_23h48.14.046,VisualSearchTask,2024.1.5,None,2024-10-01 23h48.19.809534 +0530,
104,0,104,0,148.4178322001826,,148.3903513001278,5,148.4178322001826,148.4178322001826,0.015606499975547194,149.6559569002129,[-0.436],[0.172],[1],[0],[0],[1.2501097000204027],['target'],160453,001,2024-10-01_23h48.14.046,VisualSearchTask,2024.1.5,None,2024-10-01 23h48.19.809534 +0530,
105,0,105,0,149.68583260010928,,149.66026070015505,5,149.68583260010928,149.68583260010928,0.016272200038656592,150.69089150009677,[-0.46],[0.052],[1],[0],[0],[1.0146519001573324],['target'],160453,001,2024-10-01_23h48.14.046,VisualSearchTask,2024.1.5,None,2024-10-01 23h48.19.809534 +0530,
106,0,106,0,150.7373302001506,,150.69646330014803,5,150.7373302001506,150.7373302001506,0.023337200051173568,151.8915373000782,[-0.396],[-0.132],[1],[0],[0],[1.172442799899727],['target'],160453,001,2024-10-01_23h48.14.046,VisualSearchTask,2024.1.5,None,2024-10-01 23h48.19.809534 +0530,
107,0,107,0,151.93875270010903,,151.896990200039,5,151.93875270010903,151.93875270010903,0.020183100132271647,153.37638740008697,[-0.374],[-0.472],[1],[0],[0],[1.4599868999794126],['target'],160453,001,2024-10-01_23h48.14.046,VisualSearchTask,2024.1.5,None,2024-10-01 23h48.19.809534 +0530,
108,0,108,0,153.4233138000127,,153.38015380012803,10,153.4233138000127,153.4233138000127,0.027948700124397874,154.8442075001076,[0.122],[-0.228],[1],[0],[0],[1.4365087999030948],['target'],160453,001,2024-10-01_23h48.14.046,VisualSearchTask,2024.1.5,None,2024-10-01 23h48.19.809534 +0530,
109,0,109,0,154.87493890011683,,154.84743130020797,5,154.87493890011683,154.87493890011683,0.016004000091925263,156.0962638000492,[-0.422],[-0.29],[1],[0],[0],[1.2329233998898417],['target'],160453,001,2024-10-01_23h48.14.046,VisualSearchTask,2024.1.5,None,2024-10-01 23h48.19.809534 +0530,
110,0,110,0,156.14297100016847,,156.10099270008504,10,156.14297100016847,156.14297100016847,0.029706599889323115,157.83131600008346,[0.088],[-0.304],[1],[0],[0],[1.7013117000460625],['target'],160453,001,2024-10-01_23h48.14.046,VisualSearchTask,2024.1.5,None,2024-10-01 23h48.19.809534 +0530,
111,0,111,0,157.87818580004387,,157.83655350003392,10,157.87818580004387,157.87818580004387,0.030698500107973814,159.23206500010565,[-0.484],[-0.332],[1],[0],[0],[1.3654120001010597],['target'],160453,001,2024-10-01_23h48.14.046,VisualSearchTask,2024.1.5,None,2024-10-01 23h48.19.809534 +0530,
112,0,112,0,159.2967604000587,,159.23745560017414,10,159.2967604000587,159.2967604000587,0.03782039997167885,161.16881639999337,[0.402],[-0.428],[1],[0],[0],[1.8943233001045883],['target'],160453,001,2024-10-01_23h48.14.046,VisualSearchTask,2024.1.5,None,2024-10-01 23h48.19.809534 +0530,
113,0,113,0,161.21522870007902,,161.17234340007417,5,161.21522870007902,161.21522870007902,0.017428899882361293,162.41920960019343,[-0.062],[-0.124],[1],[0],[0],[1.2297795000486076],['target'],160453,001,2024-10-01_23h48.14.046,VisualSearchTask,2024.1.5,None,2024-10-01 23h48.19.809534 +0530,
114,0,114,0,162.48346440005116,,162.42313280003145,10,162.48346440005116,162.48346440005116,0.03843590011820197,164.48840140015818,[0.038],[0.372],[1],[0],[0],[2.027104599867016],['target'],160453,001,2024-10-01_23h48.14.046,VisualSearchTask,2024.1.5,None,2024-10-01 23h48.19.809534 +0530,
115,0,115,0,164.55324350018054,,164.4954201001674,5,164.55324350018054,164.55324350018054,0.02975329989567399,165.95632330002263,[-0.236],[0.412],[1],[0],[0],[1.4321635998785496],[],160453,001,2024-10-01_23h48.14.046,VisualSearchTask,2024.1.5,None,2024-10-01 23h48.19.809534 +0530,
116,0,116,0,166.02138829999603,,165.95978100015782,10,166.02138829999603,166.02138829999603,0.033981299959123135,167.5913713001646,[0.0],[-0.368],[1],[0],[0],[1.597762000048533],['target'],160453,001,2024-10-01_23h48.14.046,VisualSearchTask,2024.1.5,None,2024-10-01 23h48.19.809534 +0530,
117,0,117,0,167.6389737999998,,167.5985714001581,5,167.6389737999998,167.6389737999998,0.024177300045266747,169.211667700205,[0.416],[0.232],[1],[0],[0],[1.5899684999603778],['target'],160453,001,2024-10-01_23h48.14.046,VisualSearchTask,2024.1.5,None,2024-10-01 23h48.19.809534 +0530,
118,0,118,0,169.27451080013998,,169.2173090002034,10,169.27451080013998,169.27451080013998,0.03543450008146465,170.4621326001361,[0.122],[0.228],[1],[0],[0],[1.2100701997987926],[],160453,001,2024-10-01_23h48.14.046,VisualSearchTask,2024.1.5,None,2024-10-01 23h48.19.809534 +0530,
119,0,119,0,170.50915530021302,,170.46773840021342,5,170.50915530021302,170.50915530021302,0.020648400066420436,171.74834070005454,[-0.212],[0.228],[1],[0],[0],[1.2605608999729156],['target'],160453,001,2024-10-01_23h48.14.046,VisualSearchTask,2024.1.5,None,2024-10-01 23h48.19.809534 +0530,
120,0,120,0,171.81063940003514,,171.75389060005546,10,171.81063940003514,171.81063940003514,0.03890170017257333,173.07948170020245,[-0.436],[-0.406],[1],[0],[0],[1.2873800999950618],['target'],160453,001,2024-10-01_23h48.14.046,VisualSearchTask,2024.1.5,None,2024-10-01 23h48.19.809534 +0530,
121,0,121,0,173.12897610012442,,173.08379750000313,5,173.12897610012442,173.12897610012442,0.01939290016889572,174.81653830013238,[-0.446],[-0.418],[1],[0],[0],[1.7137551999185234],['target'],160453,001,2024-10-01_23h48.14.046,VisualSearchTask,2024.1.5,None,2024-10-01 23h48.19.809534 +0530,
122,0,122,0,174.84702139999717,,174.82047950010747,5,174.84702139999717,174.84702139999717,0.017484299838542938,176.65230300021358,[-0.338],[0.084],[1],[0],[0],[1.8145087000448257],['target'],160453,001,2024-10-01_23h48.14.046,VisualSearchTask,2024.1.5,None,2024-10-01 23h48.19.809534 +0530,
123,0,123,0,176.71609390014783,,176.6553799000103,10,176.71609390014783,176.71609390014783,0.0328615999314934,177.95462960004807,[0.324],[0.108],[1],[0],[0],[1.2663916000165045],[],160453,001,2024-10-01_23h48.14.046,VisualSearchTask,2024.1.5,None,2024-10-01 23h48.19.809534 +0530,
124,0,124,0,178.00033490010537,,177.95965080009773,5,178.00033490010537,178.00033490010537,0.023884300142526627,179.15485220006667,[-0.086],[0.312],[1],[0],[0],[1.1720655001699924],['target'],160453,001,2024-10-01_23h48.14.046,VisualSearchTask,2024.1.5,None,2024-10-01 23h48.19.809534 +0530,
125,0,125,0,179.2186573999934,,179.15788820013404,10,179.2186573999934,179.2186573999934,0.03978969994932413,180.78933700011112,[0.322],[-0.038],[1],[0],[0],[1.5919413000810891],[],160453,001,2024-10-01_23h48.14.046,VisualSearchTask,2024.1.5,None,2024-10-01 23h48.19.809534 +0530,
126,0,126,0,180.85425750003196,,180.79301290004514,10,180.85425750003196,180.85425750003196,0.03801710018888116,182.17435460002162,[0.276],[0.364],[1],[0],[0],[1.3441051999107003],[],160453,001,2024-10-01_23h48.14.046,VisualSearchTask,2024.1.5,None,2024-10-01 23h48.19.809534 +0530,
127,0,127,0,182.20493200002238,,182.17762560001574,5,182.20493200002238,182.20493200002238,0.014992499956861138,183.52564780018292,[-0.178],[0.132],[1],[0],[0],[1.3332317001186311],['target'],160453,001,2024-10-01_23h48.14.046,VisualSearchTask,2024.1.5,None,2024-10-01 23h48.19.809534 +0530,
128,0,128,0,183.5730687000323,,183.52942050015554,10,183.5730687000323,183.5730687000323,0.028563300147652626,184.82764180004597,[0.042],[0.356],[1],[0],[0],[1.2700704999733716],[],160453,001,2024-10-01_23h48.14.046,VisualSearchTask,2024.1.5,None,2024-10-01 23h48.19.809534 +0530,
129,0,129,0,184.90844940021634,,184.83142890012823,10,184.90844940021634,184.90844940021634,0.04373689997009933,186.1794927001465,[0.476],[-0.044],[1],[0],[0],[1.3046522000804543],['target'],160453,001,2024-10-01_23h48.14.046,VisualSearchTask,2024.1.5,None,2024-10-01 23h48.19.809534 +0530,
130,0,130,0,186.24316120008007,,186.18333770008758,10,186.24316120008007,186.24316120008007,0.033042100025340915,187.72948730015196,[-0.482],[-0.048],[1],[0],[0],[1.5134843999985605],['target'],160453,001,2024-10-01_23h48.14.046,VisualSearchTask,2024.1.5,None,2024-10-01 23h48.19.809534 +0530,
131,0,131,0,187.7779453000985,,187.73488750006072,5,187.7779453000985,187.7779453000985,0.019538299879059196,189.03290500002913,[-0.142],[-0.16],[1],[0],[0],[1.2791691001038998],['target'],160453,001,2024-10-01_23h48.14.046,VisualSearchTask,2024.1.5,None,2024-10-01 23h48.19.809534 +0530,
132,0,132,0,189.06245070020668,,189.03826860012487,5,189.06245070020668,189.06245070020668,0.017656200099736452,190.50054590008222,[0.48],[0.256],[1],[0],[0],[1.4453396000899374],['target'],160453,001,2024-10-01_23h48.14.046,VisualSearchTask,2024.1.5,None,2024-10-01 23h48.19.809534 +0530,
133,0,133,0,190.5475752002094,,190.50457129999995,10,190.5475752002094,190.5475752002094,0.026838399935513735,191.81795800011605,[0.426],[0.228],[1],[0],[0],[1.2867523999884725],['target'],160453,001,2024-10-01_23h48.14.046,VisualSearchTask,2024.1.5,None,2024-10-01 23h48.19.809534 +0530,
134,0,134,0,191.88279710011557,,191.82095950003713,10,191.88279710011557,191.88279710011557,0.02968140016309917,193.2538339002058,[-0.068],[-0.004],[1],[0],[0],[1.403177300002426],['target'],160453,001,2024-10-01_23h48.14.046,VisualSearchTask,2024.1.5,None,2024-10-01 23h48.19.809534 +0530,
135,0,135,0,193.33433360001072,,193.25925640016794,10,193.33433360001072,193.33433360001072,0.039250999921932817,194.7219637001399,[0.232],[0.304],[1],[0],[0],[1.4239456001669168],['target'],160453,001,2024-10-01_23h48.14.046,VisualSearchTask,2024.1.5,None,2024-10-01 23h48.19.809534 +0530,
136,0,136,0,194.7862742000725,,194.7289894002024,5,194.7862742000725,194.7862742000725,0.031434099888429046,196.22381760017015,[-0.01],[-0.016],[1],[0],[0],[1.4644979001022875],['target'],160453,001,2024-10-01_23h48.14.046,VisualSearchTask,2024.1.5,None,2024-10-01 23h48.19.809534 +0530,
137,0,137,0,196.30427990015596,,196.22938250005245,10,196.30427990015596,196.30427990015596,0.038831699872389436,197.89118940010667,[-0.452],[-0.128],[1],[0],[0],[1.623741399962455],['target'],160453,001,2024-10-01_23h48.14.046,VisualSearchTask,2024.1.5,None,2024-10-01 23h48.19.809534 +0530,
138,0,138,0,197.92246280005202,,197.8946666000411,5,197.92246280005202,197.92246280005202,0.015200600028038025,199.07648140005767,[-0.442],[-0.304],[1],[0],[0],[1.1668036999180913],['target'],160453,001,2024-10-01_23h48.14.046,VisualSearchTask,2024.1.5,None,2024-10-01 23h48.19.809534 +0530,
139,0,139,0,199.12361600017175,,199.07997550000437,10,199.12361600017175,199.12361600017175,0.027642600005492568,200.4606232000515,[-0.084],[-0.344],[1],[0],[0],[1.3532324000261724],['target'],160453,001,2024-10-01_23h48.14.046,VisualSearchTask,2024.1.5,None,2024-10-01 23h48.19.809534 +0530,
140,0,140,0,200.50868860003538,,200.46361530013382,10,200.50868860003538,200.50868860003538,0.02946330001577735,201.64547080011107,[-0.252],[-0.264],[1],[0],[0],[1.1525665000081062],['target'],160453,001,2024-10-01_23h48.14.046,VisualSearchTask,2024.1.5,None,2024-10-01 23h48.19.809534 +0530,
141,0,141,0,201.71010950021446,,201.64901820011437,10,201.71010950021446,201.71010950021446,0.034547300077974796,203.14709830004722,[0.284],[0.06],[1],[0],[0],[1.4639626999851316],['target'],160453,001,2024-10-01_23h48.14.046,VisualSearchTask,2024.1.5,None,2024-10-01 23h48.19.809534 +0530,
142,0,142,0,203.21150820003822,,203.1500731999986,10,203.21150820003822,203.21150820003822,0.028241700027137995,204.8655591001734,[0.006],[0.34],[1],[0],[0],[1.6873188000172377],['target'],160453,001,2024-10-01_23h48.14.046,VisualSearchTask,2024.1.5,None,2024-10-01 23h48.19.809534 +0530,
143,0,143,0,204.93044080003165,,204.87115760007873,10,204.93044080003165,204.93044080003165,0.037482199957594275,206.46798580000177,[0.38],[0.452],[1],[0],[0],[1.5601163001265377],['target'],160453,001,2024-10-01_23h48.14.046,VisualSearchTask,2024.1.5,None,2024-10-01 23h48.19.809534 +0530,
144,0,144,0,206.49833930004388,,206.47113570012152,5,206.49833930004388,206.49833930004388,0.014428500086069107,207.6862869001925,[0.01],[0.436],[1],[0],[0],[1.200874599860981],['target'],160453,001,2024-10-01_23h48.14.046,VisualSearchTask,2024.1.5,None,2024-10-01 23h48.19.809534 +0530,
145,0,145,0,207.71662180009298,,207.6904710000381,5,207.71662180009298,207.71662180009298,0.01667280006222427,208.9703184000682,[0.122],[0.072],[1],[0],[0],[1.263562899781391],['target'],160453,001,2024-10-01_23h48.14.046,VisualSearchTask,2024.1.5,None,2024-10-01 23h48.19.809534 +0530,
146,0,146,0,209.00118120014668,,208.9738092001062,5,209.00118120014668,209.00118120014668,0.016045399941504,210.2067609000951,[-0.196],[-0.02],[1],[0],[0],[1.2170114000327885],['target'],160453,001,2024-10-01_23h48.14.046,VisualSearchTask,2024.1.5,None,2024-10-01 23h48.19.809534 +0530,
147,0,147,0,210.26933630020358,,210.21303000021726,10,210.26933630020358,210.26933630020358,0.03383039985783398,212.15688170003705,[0.302],[0.06],[1],[0],[0],[1.9106452998239547],[],160453,001,2024-10-01_23h48.14.046,VisualSearchTask,2024.1.5,None,2024-10-01 23h48.19.809534 +0530,
148,0,148,0,212.20471680001356,,212.1640933000017,5,212.20471680001356,212.20471680001356,0.021981399971991777,213.42544760019518,[-0.1],[0.034],[1],[0],[0],[1.240617800038308],['target'],160453,001,2024-10-01_23h48.14.046,VisualSearchTask,2024.1.5,None,2024-10-01 23h48.19.809534 +0530,
149,0,149,0,213.48999680019915,,213.428763900185,10,213.48999680019915,213.48999680019915,0.03191699995659292,214.62590330000967,[-0.124],[-0.212],[1],[0],[0],[1.1653468001168221],['target'],160453,001,2024-10-01_23h48.14.046,VisualSearchTask,2024.1.5,None,2024-10-01 23h48.19.809534 +0530,
150,0,150,0,214.7079117000103,,214.63215650012717,10,214.7079117000103,214.7079117000103,0.0505301000084728,215.87962990021333,[0.446],[-0.154],[1],[0],[0],[1.1976242000237107],['target'],160453,001,2024-10-01_23h48.14.046,VisualSearchTask,2024.1.5,None,2024-10-01 23h48.19.809534 +0530,
151,0,151,0,215.94262160011567,,215.8851799000986,10,215.94262160011567,215.94262160011567,0.033759200014173985,217.19613190018572,[0.24],[-0.412],[1],[0],[0],[1.2779417000710964],['target'],160453,001,2024-10-01_23h48.14.046,VisualSearchTask,2024.1.5,None,2024-10-01 23h48.19.809534 +0530,
152,0,152,0,217.27709270012565,,217.2018927000463,10,217.27709270012565,217.27709270012565,0.04326479998417199,218.61511920019984,[0.436],[0.02],[1],[0],[0],[1.3707608000840992],['target'],160453,001,2024-10-01_23h48.14.046,VisualSearchTask,2024.1.5,None,2024-10-01 23h48.19.809534 +0530,
153,0,153,0,218.66214370005764,,218.618208500091,10,218.66214370005764,218.66214370005764,0.02775039989501238,220.13271670020185,[-0.322],[-0.118],[1],[0],[0],[1.4868876000400633],['target'],160453,001,2024-10-01_23h48.14.046,VisualSearchTask,2024.1.5,None,2024-10-01 23h48.19.809534 +0530,
154,0,154,0,220.18010650016367,,220.1357229000423,10,220.18010650016367,220.18010650016367,0.02670889999717474,221.41749420017004,[-0.504],[-0.476],[1],[0],[0],[1.2552785999141634],[],160453,001,2024-10-01_23h48.14.046,VisualSearchTask,2024.1.5,None,2024-10-01 23h48.19.809534 +0530,
155,0,155,0,221.44832950015552,,221.4205201000441,5,221.44832950015552,221.44832950015552,0.014697799924761057,222.9861230000388,[-0.382],[-0.408],[1],[0],[0],[1.5510178999975324],['target'],160453,001,2024-10-01_23h48.14.046,VisualSearchTask,2024.1.5,None,2024-10-01 23h48.19.809534 +0530,
156,0,156,0,223.05034340010025,,222.990069600055,10,223.05034340010025,223.05034340010025,0.03747659991495311,224.32070590020157,[-0.404],[-0.138],[1],[0],[0],[1.2934316999744624],['target'],160453,001,2024-10-01_23h48.14.046,VisualSearchTask,2024.1.5,None,2024-10-01 23h48.19.809534 +0530,
157,0,157,0,224.38554940000176,,224.32791050011292,5,224.38554940000176,224.38554940000176,0.032766700023785233,225.12224890012294,[-0.404],[-0.138],[1],[0],[0],[0.7626622000243515],['target'],160453,001,2024-10-01_23h48.14.046,VisualSearchTask,2024.1.5,None,2024-10-01 23h48.19.809534 +0530,
158,0,158,0,225.18614060012624,,225.12705420004204,10,225.18614060012624,225.18614060012624,0.033033200073987246,226.77296930016018,[-0.404],[0.418],[1],[0],[0],[1.6134617999196053],['target'],160453,001,2024-10-01_23h48.14.046,VisualSearchTask,2024.1.5,None,2024-10-01 23h48.19.809534 +0530,
159,0,159,0,226.8207674000878,,226.77598120016046,10,226.8207674000878,226.8207674000878,0.02674470003694296,228.30931390007026,[-0.368],[-0.082],[1],[0],[0],[1.5067369998432696],['target'],160453,001,2024-10-01_23h48.14.046,VisualSearchTask,2024.1.5,None,2024-10-01 23h48.19.809534 +0530,
160,0,160,0,228.37352800020017,,228.31229300005361,10,228.37352800020017,228.37352800020017,0.028297399869188666,229.87667260016315,[0.118],[-0.106],[1],[0],[0],[1.5362788001075387],['target'],160453,001,2024-10-01_23h48.14.046,VisualSearchTask,2024.1.5,None,2024-10-01 23h48.19.809534 +0530,
161,0,161,0,229.90750840003602,,229.8796553001739,5,229.90750840003602,229.90750840003602,0.014456700067967176,231.1137653000187,[-0.096],[-0.38],[1],[0],[0],[1.2196158000733703],['target'],160453,001,2024-10-01_23h48.14.046,VisualSearchTask,2024.1.5,None,2024-10-01 23h48.19.809534 +0530,
162,0,162,0,231.158890100196,,231.11733400006779,10,231.158890100196,231.158890100196,0.028491399949416518,232.99638380017132,[0.492],[-0.312],[1],[0],[0],[1.850728000048548],['target'],160453,001,2024-10-01_23h48.14.046,VisualSearchTask,2024.1.5,None,2024-10-01 23h48.19.809534 +0530,
163,0,163,0,233.04429200012237,,232.99930340005085,10,233.04429200012237,233.04429200012237,0.02794190007261932,234.31528300000355,[0.228],[-0.08],[1],[0],[0],[1.2882256999146193],[],160453,001,2024-10-01_23h48.14.046,VisualSearchTask,2024.1.5,None,2024-10-01 23h48.19.809534 +0530,
164,0,164,0,234.3628626000136,,234.31883500004187,10,234.3628626000136,234.3628626000136,0.026762499939650297,235.91746180015616,[0.216],[0.304],[1],[0],[0],[1.5720701001118869],['target'],160453,001,2024-10-01_23h48.14.046,VisualSearchTask,2024.1.5,None,2024-10-01 23h48.19.809534 +0530,
165,0,165,0,235.964139000047,,235.92043340019882,10,235.964139000047,235.964139000047,0.026496500009670854,237.26929520000704,[0.406],[0.062],[1],[0],[0],[1.322412900160998],['target'],160453,001,2024-10-01_23h48.14.046,VisualSearchTask,2024.1.5,None,2024-10-01 23h48.19.809534 +0530,
166,0,166,0,237.31600440014154,,237.27352720010094,5,237.31600440014154,237.31600440014154,0.019965399987995625,238.53641690011136,[0.476],[0.148],[1],[0],[0],[1.2435844999272376],['target'],160453,001,2024-10-01_23h48.14.046,VisualSearchTask,2024.1.5,None,2024-10-01 23h48.19.809534 +0530,
167,0,167,0,238.58365760021843,,238.54052780009806,5,238.58365760021843,238.58365760021843,0.016177200013771653,239.89038710016757,[-0.108],[-0.42],[1],[0],[0],[1.3340650000609457],['target'],160453,001,2024-10-01_23h48.14.046,VisualSearchTask,2024.1.5,None,2024-10-01 23h48.19.809534 +0530,
168,0,168,0,239.93552500009537,,239.8944733000826,5,239.93552500009537,239.93552500009537,0.02052340004593134,241.20624750014395,[-0.02],[0.288],[1],[0],[0],[1.291571999900043],['target'],160453,001,2024-10-01_23h48.14.046,VisualSearchTask,2024.1.5,None,2024-10-01 23h48.19.809534 +0530,
169,0,169,0,241.23659890005365,,241.2097019001376,5,241.23659890005365,241.23659890005365,0.016116900136694312,242.55895230011083,[-0.324],[-0.02],[1],[0],[0],[1.3331995999906212],['target'],160453,001,2024-10-01_23h48.14.046,VisualSearchTask,2024.1.5,None,2024-10-01 23h48.19.809534 +0530,
170,0,170,0,242.6217284000013,,242.56543230009265,10,242.6217284000013,242.6217284000013,0.03501550015062094,244.19398550014012,[-0.218],[0.316],[1],[0],[0],[1.5942899999208748],['target'],160453,001,2024-10-01_23h48.14.046,VisualSearchTask,2024.1.5,None,2024-10-01 23h48.19.809534 +0530,
171,0,171,0,244.24094060016796,,244.1989088000264,5,244.24094060016796,244.24094060016796,0.016096499981358647,245.38001010008156,[-0.414],[0.116],[1],[0],[0],[1.1654742998071015],['target'],160453,001,2024-10-01_23h48.14.046,VisualSearchTask,2024.1.5,None,2024-10-01 23h48.19.809534 +0530,
172,0,172,0,245.40790490014479,,245.3840055000037,5,245.40790490014479,245.40790490014479,0.015862900065258145,246.84588850010186,[-0.244],[-0.366],[1],[0],[0],[1.4461994001176208],['target'],160453,001,2024-10-01_23h48.14.046,VisualSearchTask,2024.1.5,None,2024-10-01 23h48.19.809534 +0530,
173,0,173,0,246.89296289999038,,246.84885900001973,10,246.89296289999038,246.89296289999038,0.030387400183826685,248.04720730008557,[-0.3],[-0.236],[1],[0],[0],[1.1680167999584228],['target'],160453,001,2024-10-01_23h48.14.046,VisualSearchTask,2024.1.5,None,2024-10-01 23h48.19.809534 +0530,
174,0,174,0,248.11097100004554,,248.05278220004402,10,248.11097100004554,248.11097100004554,0.03380259987898171,249.69830330018885,[0.164],[-0.108],[1],[0],[0],[1.6125298000406474],['target'],160453,001,2024-10-01_23h48.14.046,VisualSearchTask,2024.1.5,None,2024-10-01 23h48.19.809534 +0530,
175,0,175,0,249.74599970015697,,249.70119360019453,10,249.74599970015697,249.74599970015697,0.025820899987593293,251.01645980007015,[-0.336],[-0.258],[1],[0],[0],[1.2896159999072552],['target'],160453,001,2024-10-01_23h48.14.046,VisualSearchTask,2024.1.5,None,2024-10-01 23h48.19.809534 +0530,
176,0,176,0,251.0474859001115,,251.0194428001996,5,251.0474859001115,251.0474859001115,0.01492880005389452,252.81918720016256,[0.0],[0.442],[1],[0],[0],[1.784964800113812],['target'],160453,001,2024-10-01_23h48.14.046,VisualSearchTask,2024.1.5,None,2024-10-01 23h48.19.809534 +0530,
177,0,177,0,252.8831745001953,,252.82253590016626,10,252.8831745001953,252.8831745001953,0.029206500155851245,253.88626180007122,[0.206],[0.41],[1],[0],[0],[1.034876799909398],['target'],160453,001,2024-10-01_23h48.14.046,VisualSearchTask,2024.1.5,None,2024-10-01 23h48.19.809534 +0530,
178,0,178,0,253.91741620004177,,253.88925860007294,5,253.91741620004177,253.91741620004177,0.016818500123918056,255.08834930020384,[-0.16],[0.186],[1],[0],[0],[1.182473599910736],['target'],160453,001,2024-10-01_23h48.14.046,VisualSearchTask,2024.1.5,None,2024-10-01 23h48.19.809534 +0530,
179,0,179,0,255.15277440007776,,255.0919553001877,10,255.15277440007776,255.15277440007776,0.03717519994825125,256.4056433001533,[0.42],[0.204],[1],[0],[0],[1.2769661999773234],['target'],160453,001,2024-10-01_23h48.14.046,VisualSearchTask,2024.1.5,None,2024-10-01 23h48.19.809534 +0530,
180,0,180,0,256.45351510006003,,256.4086828001309,10,256.45351510006003,256.45351510006003,0.026219299994409084,257.79086390021257,[-0.114],[-0.1],[1],[0],[0],[1.3561114000622183],['target'],160453,001,2024-10-01_23h48.14.046,VisualSearchTask,2024.1.5,None,2024-10-01 23h48.19.809534 +0530,
181,0,181,0,257.8548854000401,,257.7964803001378,10,257.8548854000401,257.8548854000401,0.03933560010045767,259.25912550021894,[-0.452],[0.314],[1],[0],[0],[1.4239639998413622],[],160453,001,2024-10-01_23h48.14.046,VisualSearchTask,2024.1.5,None,2024-10-01 23h48.19.809534 +0530,
182,0,182,0,259.3406751002185,,259.26424330007285,10,259.3406751002185,259.3406751002185,0.048062599962577224,260.66149430000223,[-0.218],[0.332],[1],[0],[0],[1.3498737998306751],[],160453,001,2024-10-01_23h48.14.046,VisualSearchTask,2024.1.5,None,2024-10-01 23h48.19.809534 +0530,
183,0,183,0,260.70822150004096,,260.66447560000233,10,260.70822150004096,260.70822150004096,0.026967199984937906,262.5639926001895,[0.468],[-0.232],[1],[0],[0],[1.8726386001799256],[],160453,001,2024-10-01_23h48.14.046,VisualSearchTask,2024.1.5,None,2024-10-01 23h48.19.809534 +0530,
184,0,184,0,262.61096970015205,,262.569409100106,5,262.61096970015205,262.61096970015205,0.01925510005094111,263.9323428000789,[0.478],[0.35],[1],[0],[0],[1.344386100070551],[],160453,001,2024-10-01_23h48.14.046,VisualSearchTask,2024.1.5,None,2024-10-01 23h48.19.809534 +0530,
185,0,185,0,263.9791563001927,,263.9379482001532,5,263.9791563001927,263.9791563001927,0.019091200083494186,265.45019230013713,[-0.06],[0.012],[1],[0],[0],[1.4939772998914123],['target'],160453,001,2024-10-01_23h48.14.046,VisualSearchTask,2024.1.5,None,2024-10-01 23h48.19.809534 +0530,
186,0,186,0,265.51391110010445,,265.4538446001243,10,265.51391110010445,265.51391110010445,0.03393050003796816,267.10122300009243,[0.07],[-0.292],[1],[0],[0],[1.613692799815908],['target'],160453,001,2024-10-01_23h48.14.046,VisualSearchTask,2024.1.5,None,2024-10-01 23h48.19.809534 +0530,
187,0,187,0,267.1318684001453,,267.1061174001079,5,267.1318684001453,267.1318684001453,0.016990700038149953,268.4363805002067,[-0.362],[0.334],[1],[0],[0],[1.3137594000436366],['target'],160453,001,2024-10-01_23h48.14.046,VisualSearchTask,2024.1.5,None,2024-10-01 23h48.19.809534 +0530,
188,0,188,0,268.5006497001741,,268.4395507001318,10,268.5006497001741,268.5006497001741,0.03410970000550151,270.186842400115,[0.09],[0.378],[1],[0],[0],[1.7134300000034273],['target'],160453,001,2024-10-01_23h48.14.046,VisualSearchTask,2024.1.5,None,2024-10-01 23h48.19.809534 +0530,
189,0,189,0,270.23521810001694,,270.1899155001156,10,270.23521810001694,270.23521810001694,0.02721150009892881,271.7401125000324,[-0.322],[-0.17],[1],[0],[0],[1.5232017000671476],[],160453,001,2024-10-01_23h48.14.046,VisualSearchTask,2024.1.5,None,2024-10-01 23h48.19.809534 +0530,
190,0,190,0,271.77019430021755,,271.7431159000844,5,271.77019430021755,271.77019430021755,0.014480800135061145,273.22545510018244,[-0.404],[-0.23],[1],[0],[0],[1.4680931000038981],['target'],160453,001,2024-10-01_23h48.14.046,VisualSearchTask,2024.1.5,None,2024-10-01 23h48.19.809534 +0530,
191,0,191,0,273.27186070010066,,273.22839190019295,10,273.27186070010066,273.27186070010066,0.026511899894103408,274.7927695000544,[0.438],[-0.092],[1],[0],[0],[1.5379702001810074],['target'],160453,001,2024-10-01_23h48.14.046,VisualSearchTask,2024.1.5,None,2024-10-01 23h48.19.809534 +0530,
192,0,192,0,274.82365830009803,,274.7969979001209,5,274.82365830009803,274.82365830009803,0.014727399917319417,276.0115885999985,[0.332],[0.5],[1],[0],[0],[1.2000431998167187],['target'],160453,001,2024-10-01_23h48.14.046,VisualSearchTask,2024.1.5,None,2024-10-01 23h48.19.809534 +0530,
193,0,193,0,276.0749992001802,,276.01551110018045,10,276.0749992001802,276.0749992001802,0.02783619984984398,277.3125650000293,[0.064],[0.236],[1],[0],[0],[1.269680199911818],['target'],160453,001,2024-10-01_23h48.14.046,VisualSearchTask,2024.1.5,None,2024-10-01 23h48.19.809534 +0530,
194,0,194,0,277.34310000017285,,277.3162547000684,5,277.34310000017285,277.34310000017285,0.01662350003607571,278.63201430020854,[-0.104],[0.02],[1],[0],[0],[1.2992000998929143],['target'],160453,001,2024-10-01_23h48.14.046,VisualSearchTask,2024.1.5,None,2024-10-01 23h48.19.809534 +0530,
195,0,195,0,278.69510230002925,,278.6375676000025,10,278.69510230002925,278.69510230002925,0.03632339998148382,279.7658312001731,[-0.044],[-0.064],[1],[0],[0],[1.0925853000953794],['target'],160453,001,2024-10-01_23h48.14.046,VisualSearchTask,2024.1.5,None,2024-10-01 23h48.19.809534 +0530,
196,0,196,0,279.81300190021284,,279.770193700213,5,279.81300190021284,279.81300190021284,0.027613600017502904,281.06968060019426,[0.488],[0.418],[1],[0],[0],[1.272645000135526],['target'],160453,001,2024-10-01_23h48.14.046,VisualSearchTask,2024.1.5,None,2024-10-01 23h48.19.809534 +0530,
197,0,197,0,281.131180500146,,281.07295370008796,10,281.131180500146,281.131180500146,0.035493200179189444,282.40182700008154,[-0.35],[-0.07],[1],[0],[0],[1.2937185999471694],[],160453,001,2024-10-01_23h48.14.046,VisualSearchTask,2024.1.5,None,2024-10-01 23h48.19.809534 +0530,
198,0,198,0,282.4320663001854,,282.4051049000118,5,282.4320663001854,282.4320663001854,0.018594299908727407,283.55353010003455,[-0.192],[0.126],[1],[0],[0],[1.1300210000481457],['target'],160453,001,2024-10-01_23h48.14.046,VisualSearchTask,2024.1.5,None,2024-10-01 23h48.19.809534 +0530,
199,0,199,0,283.60051510017365,,283.55906110000797,5,283.60051510017365,283.60051510017365,0.02234719996340573,285.0707272000145,[0.186],[-0.076],[1],[0],[0],[1.4900777998846024],[],160453,001,2024-10-01_23h48.14.046,VisualSearchTask,2024.1.5,None,2024-10-01 23h48.19.809534 +0530,
