trials.thisRepN,trials.thisTrialN,trials.thisN,trials.thisIndex,thisRow.t,notes,trial.started,num_distr,fixation.started,target.started,mouse.started,trial.stopped,mouse.x,mouse.y,mouse.leftButton,mouse.midButton,mouse.rightButton,mouse.time,mouse.clicked_name,participant,session,date,expName,psychopyVersion,frameRate,expStart,
0,0,0,0,0.04204510001000017,,0.011074400012148544,5,0.04204510001000017,0.04204510001000017,0.028975399996852502,1.6494741000060458,[-0.298],[0.4],[1],[0],[0],[1.619750899990322],['target'],574479,001,2024-10-04_11h07.39.760,VisualSearchTask,2024.1.5,None,2024-10-04 11h07.45.025555 +0530,
1,0,1,0,1.7946112000208814,,1.6564168000186328,5,1.7946112000208814,1.7946112000208814,0.11637480001081713,3.1973326000152156,[0.028],[-0.132],[1],[0],[0],[1.4249758000078145],['target'],574479,001,2024-10-04_11h07.39.760,VisualSearchTask,2024.1.5,None,2024-10-04 11h07.45.025555 +0530,
2,0,2,0,3.2287186000030488,,3.200429900025483,5,3.2287186000030488,3.2287186000030488,0.015529600001173094,4.516920900001423,[0.348],[0.232],[1],[0],[0],[1.3009863999905065],['target'],574479,001,2024-10-04_11h07.39.760,VisualSearchTask,2024.1.5,None,2024-10-04 11h07.45.025555 +0530,
3,0,3,0,4.563418800011277,,4.522563900012756,5,4.563418800011277,4.563418800011277,0.019409899978199974,6.117138000001432,[-0.444],[-0.086],[1],[0],[0],[1.5758897999767214],['target'],574479,001,2024-10-04_11h07.39.760,VisualSearchTask,2024.1.5,None,2024-10-04 11h07.45.025555 +0530,
4,0,4,0,6.148247900011484,,6.120714800024871,5,6.148247900011484,6.148247900011484,0.015524399990681559,7.806255900010001,[-0.148],[0.36],[1],[0],[0],[1.6701846000214573],['target'],574479,001,2024-10-04_11h07.39.760,VisualSearchTask,2024.1.5,None,2024-10-04 11h07.45.025555 +0530,
5,0,5,0,7.900750200002221,,7.812865800020518,10,7.900750200002221,7.900750200002221,0.057641199993668124,10.038260900008027,[0.082],[-0.298],[1],[0],[0],[2.1688020000001416],['target'],574479,001,2024-10-04_11h07.39.760,VisualSearchTask,2024.1.5,None,2024-10-04 11h07.45.025555 +0530,
6,0,6,0,10.086067600001115,,10.041188200004399,10,10.086067600001115,10.086067600001115,0.031895399995846674,11.72364790001302,[-0.23],[0.16],[1],[0],[0],[1.6507514000113588],['target'],574479,001,2024-10-04_11h07.39.760,VisualSearchTask,2024.1.5,None,2024-10-04 11h07.45.025555 +0530,
7,0,7,0,11.754381600010674,,11.726701200008392,5,11.754381600010674,11.754381600010674,0.014677399973152205,13.509395300003234,[-0.086],[-0.22],[1],[0],[0],[1.7682199999981094],['target'],574479,001,2024-10-04_11h07.39.760,VisualSearchTask,2024.1.5,None,2024-10-04 11h07.45.025555 +0530,
8,0,8,0,13.573491300019668,,13.51261340000201,10,13.573491300019668,13.573491300019668,0.03071520000230521,15.06028640002478,[-0.348],[0.044],[1],[0],[0],[1.5172128999838606],['target'],574479,001,2024-10-04_11h07.39.760,VisualSearchTask,2024.1.5,None,2024-10-04 11h07.45.025555 +0530,
9,0,9,0,15.091354800009867,,15.063217500020983,5,15.091354800009867,15.091354800009867,0.014702699991175905,17.029621800000314,[-0.448],[0.49],[1],[0],[0],[1.9518430000171065],['target'],574479,001,2024-10-04_11h07.39.760,VisualSearchTask,2024.1.5,None,2024-10-04 11h07.45.025555 +0530,
10,0,10,0,17.09384760001558,,17.034898700017948,10,17.09384760001558,17.09384760001558,0.0355691000004299,18.615092200023355,[0.36],[0.258],[1],[0],[0],[1.5452466999995522],['target'],574479,001,2024-10-04_11h07.39.760,VisualSearchTask,2024.1.5,None,2024-10-04 11h07.45.025555 +0530,
11,0,11,0,18.695656900003087,,18.6190123000124,10,18.695656900003087,18.695656900003087,0.04897329999948852,19.88376550000976,[0.134],[-0.294],[1],[0],[0],[1.2164703000162262],['target'],574479,001,2024-10-04_11h07.39.760,VisualSearchTask,2024.1.5,None,2024-10-04 11h07.45.025555 +0530,
12,0,12,0,19.930409900000086,,19.88864660001127,5,19.930409900000086,19.930409900000086,0.02110099999117665,21.30153930000961,[-0.338],[0.452],[1],[0],[0],[1.3924825000285637],['target'],574479,001,2024-10-04_11h07.39.760,VisualSearchTask,2024.1.5,None,2024-10-04 11h07.45.025555 +0530,
13,0,13,0,21.348417600005632,,21.304874699999345,10,21.348417600005632,21.348417600005632,0.027073900011600927,23.237456100003328,[-0.124],[-0.46],[1],[0],[0],[1.9058711999969091],['target'],574479,001,2024-10-04_11h07.39.760,VisualSearchTask,2024.1.5,None,2024-10-04 11h07.45.025555 +0530,
14,0,14,0,23.300612500024727,,23.240360099996906,10,23.300612500024727,23.300612500024727,0.03041740000480786,24.871966300008353,[0.084],[-0.212],[1],[0],[0],[1.6010124000022188],['target'],574479,001,2024-10-04_11h07.39.760,VisualSearchTask,2024.1.5,None,2024-10-04 11h07.45.025555 +0530,
15,0,15,0,24.952538200013805,,24.88299540002481,10,24.952538200013805,24.952538200013805,0.05142189998878166,26.140629900008207,[0.216],[-0.236],[1],[0],[0],[1.207093500008341],['target'],574479,001,2024-10-04_11h07.39.760,VisualSearchTask,2024.1.5,None,2024-10-04 11h07.45.025555 +0530,
16,0,16,0,26.254565400013234,,26.147636700014118,10,26.254565400013234,26.254565400013234,0.0699486999947112,27.675198700017063,[-0.318],[-0.276],[1],[0],[0],[1.4587241999979597],['target'],574479,001,2024-10-04_11h07.39.760,VisualSearchTask,2024.1.5,None,2024-10-04 11h07.45.025555 +0530,
17,0,17,0,27.721909400017466,,27.67818050002097,10,27.721909400017466,27.721909400017466,0.027452100010123104,28.87646030000178,[0.054],[-0.112],[1],[0],[0],[1.1708683999895584],['target'],574479,001,2024-10-04_11h07.39.760,VisualSearchTask,2024.1.5,None,2024-10-04 11h07.45.025555 +0530,
18,0,18,0,28.90712099999655,,28.880071100022178,5,28.90712099999655,28.90712099999655,0.015395700000226498,30.17739250001614,[-0.236],[0.228],[1],[0],[0],[1.2822254000057],['target'],574479,001,2024-10-04_11h07.39.760,VisualSearchTask,2024.1.5,None,2024-10-04 11h07.45.025555 +0530,
19,0,19,0,30.208123900025385,,30.180289100011578,5,30.208123900025385,30.208123900025385,0.014567600010195747,31.630007500003558,[-0.274],[0.066],[1],[0],[0],[1.4352031000016723],['target'],574479,001,2024-10-04_11h07.39.760,VisualSearchTask,2024.1.5,None,2024-10-04 11h07.45.025555 +0530,
20,0,20,0,31.677053699997487,,31.635655100020813,5,31.677053699997487,31.677053699997487,0.019532600010279566,32.94847140001366,[-0.26],[-0.252],[1],[0],[0],[1.293528200010769],['target'],574479,001,2024-10-04_11h07.39.760,VisualSearchTask,2024.1.5,None,2024-10-04 11h07.45.025555 +0530,
21,0,21,0,32.9958208000171,,32.95500700001139,5,32.9958208000171,32.9958208000171,0.01955709999310784,34.41608170000836,[-0.03],[0.24],[1],[0],[0],[1.4422757000138517],['target'],574479,001,2024-10-04_11h07.39.760,VisualSearchTask,2024.1.5,None,2024-10-04 11h07.45.025555 +0530,
22,0,22,0,34.479492800019216,,34.42021290000412,10,34.479492800019216,34.479492800019216,0.03122340000118129,36.10027010002523,[-0.162],[-0.396],[1],[0],[0],[1.64913279999746],['target'],574479,001,2024-10-04_11h07.39.760,VisualSearchTask,2024.1.5,None,2024-10-04 11h07.45.025555 +0530,
23,0,23,0,36.13141760000144,,36.1032199000183,5,36.13141760000144,36.13141760000144,0.014360600005602464,37.65411730000051,[-0.432],[0.306],[1],[0],[0],[1.5365488000097685],['target'],574479,001,2024-10-04_11h07.39.760,VisualSearchTask,2024.1.5,None,2024-10-04 11h07.45.025555 +0530,
24,0,24,0,37.73340360002476,,37.66026299999794,10,37.73340360002476,37.73340360002476,0.04761619999771938,39.28716410000925,[-0.238],[0.308],[1],[0],[0],[1.579788599978201],['target'],574479,001,2024-10-04_11h07.39.760,VisualSearchTask,2024.1.5,None,2024-10-04 11h07.45.025555 +0530,
25,0,25,0,39.33487109999987,,39.294020100001944,5,39.33487109999987,39.33487109999987,0.025889799988362938,40.456727600016166,[0.116],[0.096],[1],[0],[0],[1.1378381999966223],['target'],574479,001,2024-10-04_11h07.39.760,VisualSearchTask,2024.1.5,None,2024-10-04 11h07.45.025555 +0530,
26,0,26,0,40.520446800015634,,40.462206199998036,10,40.520446800015634,40.520446800015634,0.03149550000671297,42.05736279999837,[0.372],[0.084],[1],[0],[0],[1.5642711999826133],['target'],574479,001,2024-10-04_11h07.39.760,VisualSearchTask,2024.1.5,None,2024-10-04 11h07.45.025555 +0530,
27,0,27,0,42.104945700004464,,42.06194830001914,5,42.104945700004464,42.104945700004464,0.020349099999293685,43.42685810002149,[-0.114],[0.124],[1],[0],[0],[1.3449961000005715],['target'],574479,001,2024-10-04_11h07.39.760,VisualSearchTask,2024.1.5,None,2024-10-04 11h07.45.025555 +0530,
28,0,28,0,43.47297130001243,,43.43291990002035,5,43.47297130001243,43.47297130001243,0.01859990000957623,44.927817600022536,[0.088],[0.122],[1],[0],[0],[1.4769348000118043],['target'],574479,001,2024-10-04_11h07.39.760,VisualSearchTask,2024.1.5,None,2024-10-04 11h07.45.025555 +0530,
29,0,29,0,44.957734299998265,,44.93108320000465,5,44.957734299998265,44.957734299998265,0.015220400004182011,46.77910610000254,[-0.038],[-0.04],[1],[0],[0],[1.8328948999987915],['target'],574479,001,2024-10-04_11h07.39.760,VisualSearchTask,2024.1.5,None,2024-10-04 11h07.45.025555 +0530,
30,0,30,0,46.82649870001478,,46.7829250000068,10,46.82649870001478,46.82649870001478,0.02735180000308901,48.113984399999026,[0.204],[0.072],[1],[0],[0],[1.304307799990056],['target'],574479,001,2024-10-04_11h07.39.760,VisualSearchTask,2024.1.5,None,2024-10-04 11h07.45.025555 +0530,
31,0,31,0,48.19603730001836,,48.118509300024016,10,48.19603730001836,48.19603730001836,0.045893500006059185,49.69853250001324,[-0.028],[0.244],[1],[0],[0],[1.5344880999764428],['target'],574479,001,2024-10-04_11h07.39.760,VisualSearchTask,2024.1.5,None,2024-10-04 11h07.45.025555 +0530,
32,0,32,0,49.76352730000508,,49.70605570002226,5,49.76352730000508,49.76352730000508,0.03707249998115003,51.48433269999805,[-0.334],[-0.128],[1],[0],[0],[1.7423769000160974],['target'],574479,001,2024-10-04_11h07.39.760,VisualSearchTask,2024.1.5,None,2024-10-04 11h07.45.025555 +0530,
33,0,33,0,51.565260700008366,,51.48809490000713,10,51.565260700008366,51.565260700008366,0.04817429999820888,53.10240060000797,[-0.496],[-0.476],[1],[0],[0],[1.5663562999980059],['target'],574479,001,2024-10-04_11h07.39.760,VisualSearchTask,2024.1.5,None,2024-10-04 11h07.45.025555 +0530,
34,0,34,0,53.16728250001324,,53.10940660000779,5,53.16728250001324,53.16728250001324,0.03040240000700578,54.587906600005226,[0.0],[0.16],[1],[0],[0],[1.4491160000034142],['target'],574479,001,2024-10-04_11h07.39.760,VisualSearchTask,2024.1.5,None,2024-10-04 11h07.45.025555 +0530,
35,0,35,0,54.6183554000163,,54.591231600003084,5,54.6183554000163,54.6183554000163,0.015229300013743341,56.45861900001182,[-0.188],[0.07],[1],[0],[0],[1.8522068999882322],['target'],574479,001,2024-10-04_11h07.39.760,VisualSearchTask,2024.1.5,None,2024-10-04 11h07.45.025555 +0530,
36,0,36,0,56.55395960001624,,56.46400400000857,10,56.55395960001624,56.55395960001624,0.05153739999514073,58.15780060001998,[0.166],[-0.294],[1],[0],[0],[1.642880300001707],['target'],574479,001,2024-10-04_11h07.39.760,VisualSearchTask,2024.1.5,None,2024-10-04 11h07.45.025555 +0530,
37,0,37,0,58.20559090000461,,58.16088840001612,10,58.20559090000461,58.20559090000461,0.026753599988296628,60.12691410002299,[-0.388],[0.428],[1],[0],[0],[1.9394497000030242],['target'],574479,001,2024-10-04_11h07.39.760,VisualSearchTask,2024.1.5,None,2024-10-04 11h07.45.025555 +0530,
38,0,38,0,60.192041700007394,,60.13020559999859,10,60.192041700007394,60.192041700007394,0.030207800009520724,61.81252560002031,[0.196],[-0.228],[1],[0],[0],[1.652461099991342],['target'],574479,001,2024-10-04_11h07.39.760,VisualSearchTask,2024.1.5,None,2024-10-04 11h07.45.025555 +0530,
39,0,39,0,61.87704650001251,,61.81545029999688,10,61.87704650001251,61.87704650001251,0.029495399998268113,63.63273179999669,[-0.294],[0.132],[1],[0],[0],[1.7877444000041578],['target'],574479,001,2024-10-04_11h07.39.760,VisualSearchTask,2024.1.5,None,2024-10-04 11h07.45.025555 +0530,
40,0,40,0,63.695035600016126,,63.639383100002306,10,63.695035600016126,63.695035600016126,0.03207630000542849,65.3159954000148,[0.356],[-0.328],[1],[0],[0],[1.6453565999981947],['target'],574479,001,2024-10-04_11h07.39.760,VisualSearchTask,2024.1.5,None,2024-10-04 11h07.45.025555 +0530,
41,0,41,0,65.36351240001386,,65.31904030000442,10,65.36351240001386,65.36351240001386,0.02807780000148341,66.80124300002353,[-0.358],[0.106],[1],[0],[0],[1.454042199999094],['target'],574479,001,2024-10-04_11h07.39.760,VisualSearchTask,2024.1.5,None,2024-10-04 11h07.45.025555 +0530,
42,0,42,0,66.86601480000536,,66.80865360001917,5,66.86601480000536,66.86601480000536,0.03051670000422746,68.2859495000157,[0.382],[-0.416],[1],[0],[0],[1.4482287999999244],['target'],574479,001,2024-10-04_11h07.39.760,VisualSearchTask,2024.1.5,None,2024-10-04 11h07.45.025555 +0530,
43,0,43,0,68.35117229999742,,68.28946570001426,10,68.35117229999742,68.35117229999742,0.0313808000064455,69.90439270000206,[-0.136],[0.028],[1],[0],[0],[1.5838674000115134],['target'],574479,001,2024-10-04_11h07.39.760,VisualSearchTask,2024.1.5,None,2024-10-04 11h07.45.025555 +0530,
44,0,44,0,69.93535549999797,,69.90731140002026,5,69.93535549999797,69.93535549999797,0.01585600001271814,71.49102890002541,[0.492],[0.374],[1],[0],[0],[1.5679267999948934],['target'],574479,001,2024-10-04_11h07.39.760,VisualSearchTask,2024.1.5,None,2024-10-04 11h07.45.025555 +0530,
45,0,45,0,71.53688460000558,,71.49648719999823,5,71.53688460000558,71.53688460000558,0.017580400017322972,73.20861430000514,[-0.238],[-0.016],[1],[0],[0],[1.6951906000031158],['target'],574479,001,2024-10-04_11h07.39.760,VisualSearchTask,2024.1.5,None,2024-10-04 11h07.45.025555 +0530,
46,0,46,0,73.23891660000663,,73.21295139999711,5,73.23891660000663,73.23891660000663,0.01635109999915585,74.56026940001175,[0.376],[0.196],[1],[0],[0],[1.3313821000047028],['target'],574479,001,2024-10-04_11h07.39.760,VisualSearchTask,2024.1.5,None,2024-10-04 11h07.45.025555 +0530,
47,0,47,0,74.6407267000177,,74.56610019999789,10,74.6407267000177,74.6407267000177,0.049427000019932166,77.1633329000033,[-0.086],[-0.284],[1],[0],[0],[2.5486389999859966],['target'],574479,001,2024-10-04_11h07.39.760,VisualSearchTask,2024.1.5,None,2024-10-04 11h07.45.025555 +0530,
48,0,48,0,77.24404089999734,,77.17017630001646,10,77.24404089999734,77.24404089999734,0.050009300000965595,78.64754150001681,[-0.11],[0.026],[1],[0],[0],[1.4282844999979716],['target'],574479,001,2024-10-04_11h07.39.760,VisualSearchTask,2024.1.5,None,2024-10-04 11h07.45.025555 +0530,
49,0,49,0,78.71222030001809,,78.65076960000442,10,78.71222030001809,78.71222030001809,0.029330800025491044,80.09929700000794,[-0.5],[-0.256],[1],[0],[0],[1.4193863999971654],['target'],574479,001,2024-10-04_11h07.39.760,VisualSearchTask,2024.1.5,None,2024-10-04 11h07.45.025555 +0530,
50,0,50,0,80.14662380001391,,80.10429350001505,5,80.14662380001391,80.14662380001391,0.018071999977109954,81.48466080002254,[-0.232],[0.178],[1],[0],[0],[1.362802500021644],['target'],574479,001,2024-10-04_11h07.39.760,VisualSearchTask,2024.1.5,None,2024-10-04 11h07.45.025555 +0530,
51,0,51,0,81.54824450000888,,81.48931880001328,10,81.54824450000888,81.54824450000888,0.02914739999687299,82.83539940000628,[-0.148],[0.284],[1],[0],[0],[1.3173406999849249],['target'],574479,001,2024-10-04_11h07.39.760,VisualSearchTask,2024.1.5,None,2024-10-04 11h07.45.025555 +0530,
52,0,52,0,82.93355480002356,,82.84167870000238,10,82.93355480002356,82.93355480002356,0.05399669997859746,84.90434920002008,[0.112],[-0.462],[1],[0],[0],[2.0095368000038434],['target'],574479,001,2024-10-04_11h07.39.760,VisualSearchTask,2024.1.5,None,2024-10-04 11h07.45.025555 +0530,
53,0,53,0,84.95208680001087,,84.90726820001146,10,84.95208680001087,84.95208680001087,0.02626879999297671,86.28947509999853,[-0.036],[0.044],[1],[0],[0],[1.3561213000211865],['target'],574479,001,2024-10-04_11h07.39.760,VisualSearchTask,2024.1.5,None,2024-10-04 11h07.45.025555 +0530,
54,0,54,0,86.32004690001486,,86.29349430001457,5,86.32004690001486,86.32004690001486,0.014741499995579943,87.79085980000673,[-0.43],[0.334],[1],[0],[0],[1.4828241000068374],['target'],574479,001,2024-10-04_11h07.39.760,VisualSearchTask,2024.1.5,None,2024-10-04 11h07.45.025555 +0530,
55,0,55,0,87.82154860001174,,87.7942140000232,5,87.82154860001174,87.82154860001174,0.015175499982433394,89.242805100017,[-0.496],[-0.432],[1],[0],[0],[1.4335321000253316],['target'],574479,001,2024-10-04_11h07.39.760,VisualSearchTask,2024.1.5,None,2024-10-04 11h07.45.025555 +0530,
56,0,56,0,89.28979890001938,,89.24983030001749,5,89.28979890001938,89.28979890001938,0.022229199996218085,90.92804140000953,[0.452],[0.132],[1],[0],[0],[1.6570390999841038],['target'],574479,001,2024-10-04_11h07.39.760,VisualSearchTask,2024.1.5,None,2024-10-04 11h07.45.025555 +0530,
57,0,57,0,90.95838860000367,,90.93207750000875,5,90.95838860000367,90.95838860000367,0.01679530000546947,92.37924590002513,[0.252],[-0.3],[1],[0],[0],[1.4307816000073217],[],574479,001,2024-10-04_11h07.39.760,VisualSearchTask,2024.1.5,None,2024-10-04 11h07.45.025555 +0530,
58,0,58,0,92.4435723000206,,92.38309470002423,10,92.4435723000206,92.4435723000206,0.034960499993758276,94.5146372000163,[0.304],[0.498],[1],[0],[0],[2.097027000010712],['target'],574479,001,2024-10-04_11h07.39.760,VisualSearchTask,2024.1.5,None,2024-10-04 11h07.45.025555 +0530,
59,0,59,0,94.5792921000102,,94.51848690002225,10,94.5792921000102,94.5792921000102,0.033977000013692304,96.26782639999874,[-0.378],[0.452],[1],[0],[0],[1.7155531999887899],['target'],574479,001,2024-10-04_11h07.39.760,VisualSearchTask,2024.1.5,None,2024-10-04 11h07.45.025555 +0530,
60,0,60,0,96.33112270000856,,96.27339400001802,10,96.33112270000856,96.33112270000856,0.032124900026246905,98.98687640001299,[0.17],[-0.282],[1],[0],[0],[2.6821615000080783],['target'],574479,001,2024-10-04_11h07.39.760,VisualSearchTask,2024.1.5,None,2024-10-04 11h07.45.025555 +0530,
61,0,61,0,99.01719980000053,,98.99000020002131,5,99.01719980000053,99.01719980000053,0.014565999998012558,101.10563400000683,[0.262],[0.468],[1],[0],[0],[2.101179899997078],['target'],574479,001,2024-10-04_11h07.39.760,VisualSearchTask,2024.1.5,None,2024-10-04 11h07.45.025555 +0530,
62,0,62,0,101.15291920001619,,101.10955540000577,10,101.15291920001619,101.15291920001619,0.028245800000149757,103.17446290000225,[-0.144],[-0.46],[1],[0],[0],[2.03687219999847],['target'],574479,001,2024-10-04_11h07.39.760,VisualSearchTask,2024.1.5,None,2024-10-04 11h07.45.025555 +0530,
63,0,63,0,103.22180720002507,,103.18182600001455,5,103.22180720002507,103.22180720002507,0.026063600002089515,104.72639300001902,[-0.292],[-0.352],[1],[0],[0],[1.5196408999909181],['target'],574479,001,2024-10-04_11h07.39.760,VisualSearchTask,2024.1.5,None,2024-10-04 11h07.45.025555 +0530,
64,0,64,0,104.80817350000143,,104.7334221000201,10,104.80817350000143,104.80817350000143,0.051285099994856864,106.49548900002264,[-0.304],[0.084],[1],[0],[0],[1.7117504999914672],['target'],574479,001,2024-10-04_11h07.39.760,VisualSearchTask,2024.1.5,None,2024-10-04 11h07.45.025555 +0530,
65,0,65,0,106.54229870002018,,106.49885319999885,10,106.54229870002018,106.54229870002018,0.027093599986983463,108.11313140002312,[0.092],[-0.18],[1],[0],[0],[1.5872612999810372],['target'],574479,001,2024-10-04_11h07.39.760,VisualSearchTask,2024.1.5,None,2024-10-04 11h07.45.025555 +0530,
66,0,66,0,108.21165610000025,,108.12015450000763,10,108.21165610000025,108.21165610000025,0.05995609998353757,109.49829430002137,[0.45],[-0.228],[1],[0],[0],[1.3194015999906696],['target'],574479,001,2024-10-04_11h07.39.760,VisualSearchTask,2024.1.5,None,2024-10-04 11h07.45.025555 +0530,
67,0,67,0,109.5623978000076,,109.50138590001734,10,109.5623978000076,109.5623978000076,0.03199489999678917,111.53398490001564,[-0.474],[0.384],[1],[0],[0],[2.0006338999955915],['target'],574479,001,2024-10-04_11h07.39.760,VisualSearchTask,2024.1.5,None,2024-10-04 11h07.45.025555 +0530,
68,0,68,0,111.61445660001482,,111.53944250001223,10,111.61445660001482,111.61445660001482,0.0494466999953147,113.00173020001967,[0.42],[-0.192],[1],[0],[0],[1.4135146999906283],['target'],574479,001,2024-10-04_11h07.39.760,VisualSearchTask,2024.1.5,None,2024-10-04 11h07.45.025555 +0530,
69,0,69,0,113.04948040001909,,113.00670130000799,10,113.04948040001909,113.04948040001909,0.029651699995156378,114.45409559999825,[-0.198],[0.402],[1],[0],[0],[1.4183776999998372],['target'],574479,001,2024-10-04_11h07.39.760,VisualSearchTask,2024.1.5,None,2024-10-04 11h07.45.025555 +0530,
70,0,70,0,114.48428430000786,,114.45705029999954,5,114.48428430000786,114.48428430000786,0.0142723000026308,115.92184399999678,[-0.5],[-0.048],[1],[0],[0],[1.4506619999883696],['target'],574479,001,2024-10-04_11h07.39.760,VisualSearchTask,2024.1.5,None,2024-10-04 11h07.45.025555 +0530,
71,0,71,0,115.95273540000198,,115.92588019999675,5,115.95273540000198,115.95273540000198,0.015631999995093793,117.17337180001778,[-0.054],[0.166],[1],[0],[0],[1.232307900005253],['target'],574479,001,2024-10-04_11h07.39.760,VisualSearchTask,2024.1.5,None,2024-10-04 11h07.45.025555 +0530,
72,0,72,0,117.20399989999714,,117.17712670000037,5,117.20399989999714,117.20399989999714,0.015094300004420802,118.92614779999712,[-0.036],[-0.336],[1],[0],[0],[1.7342120000103023],['target'],574479,001,2024-10-04_11h07.39.760,VisualSearchTask,2024.1.5,None,2024-10-04 11h07.45.025555 +0530,
73,0,73,0,118.9727732000174,,118.92959220000193,5,118.9727732000174,118.9727732000174,0.022125699993921444,121.17729650001274,[-0.248],[-0.404],[1],[0],[0],[2.225941700016847],['target'],574479,001,2024-10-04_11h07.39.760,VisualSearchTask,2024.1.5,None,2024-10-04 11h07.45.025555 +0530,
74,0,74,0,121.20837480001501,,121.18025689999922,5,121.20837480001501,121.20837480001501,0.013614900002721697,122.82933150001918,[0.084],[0.288],[1],[0],[0],[1.6356473000196274],['target'],574479,001,2024-10-04_11h07.39.760,VisualSearchTask,2024.1.5,None,2024-10-04 11h07.45.025555 +0530,
75,0,75,0,122.85996680002427,,122.83346390002407,5,122.85996680002427,122.85996680002427,0.016034700005548075,124.34786140001961,[0.502],[0.26],[1],[0],[0],[1.4987596000137273],['target'],574479,001,2024-10-04_11h07.39.760,VisualSearchTask,2024.1.5,None,2024-10-04 11h07.45.025555 +0530,
76,0,76,0,124.39527010000893,,124.35173890000442,10,124.39527010000893,124.39527010000893,0.029010899976128712,126.03382599999895,[-0.19],[-0.44],[1],[0],[0],[1.6534058999968693],['target'],574479,001,2024-10-04_11h07.39.760,VisualSearchTask,2024.1.5,None,2024-10-04 11h07.45.025555 +0530,
77,0,77,0,126.08042710000882,,126.03771010000492,10,126.08042710000882,126.08042710000882,0.02665140002500266,127.26801890000934,[-0.204],[0.12],[1],[0],[0],[1.204814600001555],['target'],574479,001,2024-10-04_11h07.39.760,VisualSearchTask,2024.1.5,None,2024-10-04 11h07.45.025555 +0530,
78,0,78,0,127.31496090002474,,127.27102990000276,10,127.31496090002474,127.31496090002474,0.025927600014256313,128.6021757000126,[-0.306],[-0.116],[1],[0],[0],[1.3054086999909487],['target'],574479,001,2024-10-04_11h07.39.760,VisualSearchTask,2024.1.5,None,2024-10-04 11h07.45.025555 +0530,
79,0,79,0,128.63311670001713,,128.60508730000583,5,128.63311670001713,128.63311670001713,0.013281399995321408,129.92124039999908,[-0.058],[-0.102],[1],[0],[0],[1.3030333000060637],['target'],574479,001,2024-10-04_11h07.39.760,VisualSearchTask,2024.1.5,None,2024-10-04 11h07.45.025555 +0530,
80,0,80,0,129.985187400016,,129.92461870002444,10,129.985187400016,129.985187400016,0.032561799976974726,131.13849500002107,[-0.038],[-0.1],[1],[0],[0],[1.181690500001423],['target'],574479,001,2024-10-04_11h07.39.760,VisualSearchTask,2024.1.5,None,2024-10-04 11h07.45.025555 +0530,
81,0,81,0,131.16918680001982,,131.1414651000232,5,131.16918680001982,131.16918680001982,0.014560399984475225,132.42406760001904,[0.384],[-0.224],[1],[0],[0],[1.2681215000047814],['target'],574479,001,2024-10-04_11h07.39.760,VisualSearchTask,2024.1.5,None,2024-10-04 11h07.45.025555 +0530,
82,0,82,0,132.50470940000378,,132.42946670000674,10,132.50470940000378,132.50470940000378,0.05104709998704493,133.84178870002506,[-0.252],[-0.378],[1],[0],[0],[1.361933100008173],['target'],574479,001,2024-10-04_11h07.39.760,VisualSearchTask,2024.1.5,None,2024-10-04 11h07.45.025555 +0530,
83,0,83,0,133.90571270001237,,133.84746950000408,10,133.90571270001237,133.90571270001237,0.0357246000203304,135.15976650000084,[-0.036],[-0.144],[1],[0],[0],[1.2771135000220966],['target'],574479,001,2024-10-04_11h07.39.760,VisualSearchTask,2024.1.5,None,2024-10-04 11h07.45.025555 +0530,
84,0,84,0,135.1903752000071,,135.1640774999978,5,135.1903752000071,135.1903752000071,0.016482100007124245,136.4953279000183,[0.406],[-0.028],[1],[0],[0],[1.3153312999929767],['target'],574479,001,2024-10-04_11h07.39.760,VisualSearchTask,2024.1.5,None,2024-10-04 11h07.45.025555 +0530,
85,0,85,0,136.52519810001832,,136.4996414000052,5,136.52519810001832,136.52519810001832,0.018084099981933832,137.7992144000018,[-0.124],[-0.308],[1],[0],[0],[1.2818312000017613],['target'],574479,001,2024-10-04_11h07.39.760,VisualSearchTask,2024.1.5,None,2024-10-04 11h07.45.025555 +0530,
86,0,86,0,137.84397290000925,,137.80612020002445,5,137.84397290000925,137.84397290000925,0.021644399996148422,139.3147644000128,[0.492],[0.196],[1],[0],[0],[1.4879851999867242],['target'],574479,001,2024-10-04_11h07.39.760,VisualSearchTask,2024.1.5,None,2024-10-04 11h07.45.025555 +0530,
87,0,87,0,139.37849390000338,,139.31788290000986,10,139.37849390000338,139.37849390000338,0.029584400006569922,140.79987940000137,[0.008],[-0.316],[1],[0],[0],[1.4525509999948554],['target'],574479,001,2024-10-04_11h07.39.760,VisualSearchTask,2024.1.5,None,2024-10-04 11h07.45.025555 +0530,
88,0,88,0,140.8466234000225,,140.8030940000026,10,140.8466234000225,140.8466234000225,0.02737389999674633,143.25343860001885,[0.388],[-0.47],[1],[0],[0],[2.4231302999833133],[],574479,001,2024-10-04_11h07.39.760,VisualSearchTask,2024.1.5,None,2024-10-04 11h07.45.025555 +0530,
89,0,89,0,143.31688190001296,,143.2605594000197,5,143.31688190001296,143.31688190001296,0.0307195000059437,145.10396720000426,[-0.26],[-0.076],[1],[0],[0],[1.8139462000108324],[],574479,001,2024-10-04_11h07.39.760,VisualSearchTask,2024.1.5,None,2024-10-04 11h07.45.025555 +0530,
90,0,90,0,145.13465890000225,,145.10800150001887,5,145.13465890000225,145.13465890000225,0.01705769999534823,146.8400002999988,[0.196],[-0.428],[1],[0],[0],[1.7153899999975692],['target'],574479,001,2024-10-04_11h07.39.760,VisualSearchTask,2024.1.5,None,2024-10-04 11h07.45.025555 +0530,
91,0,91,0,146.92088489999878,,146.8451554000203,10,146.92088489999878,146.92088489999878,0.039627699996344745,149.45819309999933,[-0.214],[0.456],[1],[0],[0],[2.574397999997018],['target'],574479,001,2024-10-04_11h07.39.760,VisualSearchTask,2024.1.5,None,2024-10-04 11h07.45.025555 +0530,
92,0,92,0,149.50647839999874,,149.4611131999991,10,149.50647839999874,149.50647839999874,0.026346700004069135,151.1286253000144,[0.496],[0.236],[1],[0],[0],[1.641186499997275],['target'],574479,001,2024-10-04_11h07.39.760,VisualSearchTask,2024.1.5,None,2024-10-04 11h07.45.025555 +0530,
93,0,93,0,151.1913315000129,,151.1330566999968,10,151.1913315000129,151.1913315000129,0.028669599996646866,152.91403680000803,[-0.372],[0.188],[1],[0],[0],[1.7526450000004843],['target'],574479,001,2024-10-04_11h07.39.760,VisualSearchTask,2024.1.5,None,2024-10-04 11h07.45.025555 +0530,
94,0,94,0,152.97761770000216,,152.92063010000857,5,152.97761770000216,152.97761770000216,0.029121800005668774,154.69841569999699,[0.086],[0.342],[1],[0],[0],[1.7496870000031777],[],574479,001,2024-10-04_11h07.39.760,VisualSearchTask,2024.1.5,None,2024-10-04 11h07.45.025555 +0530,
95,0,95,0,154.7619449000049,,154.7020940000075,10,154.7619449000049,154.7619449000049,0.03215560002718121,156.18243040001835,[-0.41],[0.012],[1],[0],[0],[1.4486687000025995],['target'],574479,001,2024-10-04_11h07.39.760,VisualSearchTask,2024.1.5,None,2024-10-04 11h07.45.025555 +0530,
96,0,96,0,156.2134764000075,,156.18542029999662,5,156.2134764000075,156.2134764000075,0.01421749999281019,157.6178664000181,[0.46],[0.026],[1],[0],[0],[1.418411599996034],['target'],574479,001,2024-10-04_11h07.39.760,VisualSearchTask,2024.1.5,None,2024-10-04 11h07.45.025555 +0530,
97,0,97,0,157.68193940000492,,157.6211401000037,10,157.68193940000492,157.68193940000492,0.03984879999188706,159.03578140001628,[0.354],[-0.46],[1],[0],[0],[1.3751356000138912],['target'],574479,001,2024-10-04_11h07.39.760,VisualSearchTask,2024.1.5,None,2024-10-04 11h07.45.025555 +0530,
98,0,98,0,159.06706070000655,,159.0387179000245,5,159.06706070000655,159.06706070000655,0.013819499989040196,160.6729875000019,[0.046],[0.13],[1],[0],[0],[1.6202696000109427],['target'],574479,001,2024-10-04_11h07.39.760,VisualSearchTask,2024.1.5,None,2024-10-04 11h07.45.025555 +0530,
99,0,99,0,160.7187821000116,,160.67941850001807,5,160.7187821000116,160.7187821000116,0.020738699997309595,162.05592090002028,[-0.094],[-0.106],[1],[0],[0],[1.3564420000184327],['target'],574479,001,2024-10-04_11h07.39.760,VisualSearchTask,2024.1.5,None,2024-10-04 11h07.45.025555 +0530,
100,0,100,0,162.10339650002425,,162.05998839999666,10,162.10339650002425,162.10339650002425,0.02804659999674186,163.35709550001775,[0.154],[-0.18],[1],[0],[0],[1.269588199997088],['target'],574479,001,2024-10-04_11h07.39.760,VisualSearchTask,2024.1.5,None,2024-10-04 11h07.45.025555 +0530,
101,0,101,0,163.40471100001014,,163.36005370001658,10,163.40471100001014,163.40471100001014,0.027493500005220994,165.39479469999787,[-0.302],[0.472],[1],[0],[0],[2.0072765999939293],['target'],574479,001,2024-10-04_11h07.39.760,VisualSearchTask,2024.1.5,None,2024-10-04 11h07.45.025555 +0530,
102,0,102,0,165.4407664000173,,165.4005862000049,5,165.4407664000173,165.4407664000173,0.018258600000990555,167.42966720002005,[0.1],[-0.454],[1],[0],[0],[2.011513500008732],['target'],574479,001,2024-10-04_11h07.39.760,VisualSearchTask,2024.1.5,None,2024-10-04 11h07.45.025555 +0530,
103,0,103,0,167.47725970001193,,167.43530790001387,5,167.47725970001193,167.47725970001193,0.023359699989669025,168.79735920001986,[0.39],[-0.43],[1],[0],[0],[1.33931300000404],['target'],574479,001,2024-10-04_11h07.39.760,VisualSearchTask,2024.1.5,None,2024-10-04 11h07.45.025555 +0530,
104,0,104,0,168.86207280002418,,168.80409980000695,5,168.86207280002418,168.86207280002418,0.028927500010468066,170.43243480002275,[-0.468],[0.094],[1],[0],[0],[1.6003489999857266],['target'],574479,001,2024-10-04_11h07.39.760,VisualSearchTask,2024.1.5,None,2024-10-04 11h07.45.025555 +0530,
105,0,105,0,170.4796129000024,,170.43621790001635,10,170.4796129000024,170.4796129000024,0.02683029999025166,171.86663530001533,[0.064],[-0.068],[1],[0],[0],[1.4038933999836445],['target'],574479,001,2024-10-04_11h07.39.760,VisualSearchTask,2024.1.5,None,2024-10-04 11h07.45.025555 +0530,
106,0,106,0,171.89742809999734,,171.8700684000214,5,171.89742809999734,171.89742809999734,0.014752599992789328,173.40221040000324,[0.28],[-0.198],[1],[0],[0],[1.5172611000016332],['target'],574479,001,2024-10-04_11h07.39.760,VisualSearchTask,2024.1.5,None,2024-10-04 11h07.45.025555 +0530,
107,0,107,0,173.44960950000677,,173.40906040000846,5,173.44960950000677,173.44960950000677,0.025020200002472848,174.61900649999734,[-0.072],[-0.412],[1],[0],[0],[1.1858960000099614],['target'],574479,001,2024-10-04_11h07.39.760,VisualSearchTask,2024.1.5,None,2024-10-04 11h07.45.025555 +0530,
108,0,108,0,174.68409860000247,,174.62496270000702,10,174.68409860000247,174.68409860000247,0.047377899987623096,175.77148910000687,[-0.028],[-0.394],[1],[0],[0],[1.0998727999976836],['target'],574479,001,2024-10-04_11h07.39.760,VisualSearchTask,2024.1.5,None,2024-10-04 11h07.45.025555 +0530,
109,0,109,0,175.83518170000752,,175.77585780000663,10,175.83518170000752,175.83518170000752,0.031148699985351413,177.07265170000028,[0.084],[-0.034],[1],[0],[0],[1.2658931000041775],['target'],574479,001,2024-10-04_11h07.39.760,VisualSearchTask,2024.1.5,None,2024-10-04 11h07.45.025555 +0530,
110,0,110,0,177.11978259999887,,177.07557440001983,10,177.11978259999887,177.11978259999887,0.02833440000540577,179.0079491000215,[-0.022],[0.388],[1],[0],[0],[1.9040270000114106],['target'],574479,001,2024-10-04_11h07.39.760,VisualSearchTask,2024.1.5,None,2024-10-04 11h07.45.025555 +0530,
111,0,111,0,179.05542300001252,,179.01504170001135,5,179.05542300001252,179.05542300001252,0.023054300021613017,180.39433390001068,[0.004],[0.038],[1],[0],[0],[1.3572654000017792],[],574479,001,2024-10-04_11h07.39.760,VisualSearchTask,2024.1.5,None,2024-10-04 11h07.45.025555 +0530,
112,0,112,0,180.44036680000136,,180.39845790000982,10,180.44036680000136,180.44036680000136,0.028001800004858524,182.4966195000161,[-0.238],[-0.216],[1],[0],[0],[2.070380600023782],['target'],574479,001,2024-10-04_11h07.39.760,VisualSearchTask,2024.1.5,None,2024-10-04 11h07.45.025555 +0530,
113,0,113,0,182.5595355000114,,182.50369470001897,5,182.5595355000114,182.5595355000114,0.028159800014691427,184.06509980000556,[0.448],[-0.164],[1],[0],[0],[1.5341951999871526],['target'],574479,001,2024-10-04_11h07.39.760,VisualSearchTask,2024.1.5,None,2024-10-04 11h07.45.025555 +0530,
114,0,114,0,184.11104850002448,,184.0726646000112,5,184.11104850002448,184.11104850002448,0.023118600016459823,185.24824650000664,[0.098],[-0.22],[1],[0],[0],[1.1533291000232566],['target'],574479,001,2024-10-04_11h07.39.760,VisualSearchTask,2024.1.5,None,2024-10-04 11h07.45.025555 +0530,
115,0,115,0,185.27899180000531,,185.2513717999973,5,185.27899180000531,185.27899180000531,0.015018600010080263,186.66705580000416,[-0.016],[0.156],[1],[0],[0],[1.4009302000049502],['target'],574479,001,2024-10-04_11h07.39.760,VisualSearchTask,2024.1.5,None,2024-10-04 11h07.45.025555 +0530,
116,0,116,0,186.7307963000203,,186.67003510001814,10,186.7307963000203,186.7307963000203,0.04073130001779646,188.16824490000727,[0.308],[0.258],[1],[0],[0],[1.457550099992659],['target'],574479,001,2024-10-04_11h07.39.760,VisualSearchTask,2024.1.5,None,2024-10-04 11h07.45.025555 +0530,
117,0,117,0,188.2490885000152,,188.17401610000525,10,188.2490885000152,188.2490885000152,0.046318700013216585,189.58731640002225,[0.3],[-0.288],[1],[0],[0],[1.367484999995213],[],574479,001,2024-10-04_11h07.39.760,VisualSearchTask,2024.1.5,None,2024-10-04 11h07.45.025555 +0530,
118,0,118,0,189.63387650001096,,189.59302310002386,5,189.63387650001096,189.63387650001096,0.020403800008352846,190.95565570000326,[0.1],[-0.052],[1],[0],[0],[1.3430247999785934],['target'],574479,001,2024-10-04_11h07.39.760,VisualSearchTask,2024.1.5,None,2024-10-04 11h07.45.025555 +0530,
119,0,119,0,190.98528710001847,,190.96029050002107,5,190.98528710001847,190.98528710001847,0.01688739997916855,192.23894830001518,[0.11],[0.07],[1],[0],[0],[1.2623212000180501],['target'],574479,001,2024-10-04_11h07.39.760,VisualSearchTask,2024.1.5,None,2024-10-04 11h07.45.025555 +0530,
120,0,120,0,192.28700470001786,,192.24282970000058,10,192.28700470001786,192.28700470001786,0.027079899999080226,194.3751242000144,[-0.172],[0.466],[1],[0],[0],[2.105628799996339],['target'],574479,001,2024-10-04_11h07.39.760,VisualSearchTask,2024.1.5,None,2024-10-04 11h07.45.025555 +0530,
121,0,121,0,194.43966590001946,,194.3812552000163,10,194.43966590001946,194.43966590001946,0.033391699980711564,196.21035700000357,[0.402],[0.168],[1],[0],[0],[1.7965827999869362],[],574479,001,2024-10-04_11h07.39.760,VisualSearchTask,2024.1.5,None,2024-10-04 11h07.45.025555 +0530,
122,0,122,0,196.25776460001362,,196.21522420001565,10,196.25776460001362,196.25776460001362,0.027082700020400807,197.6784919000056,[0.208],[0.276],[1],[0],[0],[1.436803599994164],[],574479,001,2024-10-04_11h07.39.760,VisualSearchTask,2024.1.5,None,2024-10-04 11h07.45.025555 +0530,
123,0,123,0,197.70946760001243,,197.68187030000263,5,197.70946760001243,197.70946760001243,0.016554999980144203,199.69965220001177,[0.474],[0.2],[1],[0],[0],[2.001260499993805],['target'],574479,001,2024-10-04_11h07.39.760,VisualSearchTask,2024.1.5,None,2024-10-04 11h07.45.025555 +0530,
124,0,124,0,199.7450921999989,,199.706115900015,5,199.7450921999989,199.7450921999989,0.018086299998685718,201.38292830000864,[-0.458],[0.1],[1],[0],[0],[1.6593838000262622],['target'],574479,001,2024-10-04_11h07.39.760,VisualSearchTask,2024.1.5,None,2024-10-04 11h07.45.025555 +0530,
125,0,125,0,201.4134656000242,,201.3863946000056,5,201.4134656000242,201.4134656000242,0.017904100008308887,202.96738950000145,[-0.312],[-0.118],[1],[0],[0],[1.5633666000212543],['target'],574479,001,2024-10-04_11h07.39.760,VisualSearchTask,2024.1.5,None,2024-10-04 11h07.45.025555 +0530,
126,0,126,0,203.0154819000163,,202.97085690000677,10,203.0154819000163,203.0154819000163,0.027636899991193786,204.96975380001822,[0.182],[0.374],[1],[0],[0],[1.9715097000007518],['target'],574479,001,2024-10-04_11h07.39.760,VisualSearchTask,2024.1.5,None,2024-10-04 11h07.45.025555 +0530,
127,0,127,0,205.03408840001794,,204.97448020000593,10,205.03408840001794,205.03408840001794,0.03732410000520758,206.35454410000239,[-0.426],[-0.232],[1],[0],[0],[1.3433851999870967],['target'],574479,001,2024-10-04_11h07.39.760,VisualSearchTask,2024.1.5,None,2024-10-04 11h07.45.025555 +0530,
128,0,128,0,206.40270230002352,,206.35767890000716,5,206.40270230002352,206.40270230002352,0.017806599993491545,208.20717890001833,[0.306],[-0.39],[1],[0],[0],[1.8319016000023112],[],574479,001,2024-10-04_11h07.39.760,VisualSearchTask,2024.1.5,None,2024-10-04 11h07.45.025555 +0530,
129,0,129,0,208.23764180002036,,208.21075660001952,5,208.23764180002036,208.23764180002036,0.014961999986553565,209.57483430000138,[0.102],[0.19],[1],[0],[0],[1.3493421000021044],['target'],574479,001,2024-10-04_11h07.39.760,VisualSearchTask,2024.1.5,None,2024-10-04 11h07.45.025555 +0530,
130,0,130,0,209.6399495000078,,209.5789496000216,10,209.6399495000078,209.6399495000078,0.035719400009838864,211.41083520001848,[-0.18],[-0.388],[1],[0],[0],[1.7966097999888007],['target'],574479,001,2024-10-04_11h07.39.760,VisualSearchTask,2024.1.5,None,2024-10-04 11h07.45.025555 +0530,
131,0,131,0,211.4751162000175,,211.4139267000137,10,211.4751162000175,211.4751162000175,0.031652099976781756,212.61161720001837,[0.254],[-0.42],[1],[0],[0],[1.166222799976822],['target'],574479,001,2024-10-04_11h07.39.760,VisualSearchTask,2024.1.5,None,2024-10-04 11h07.45.025555 +0530,
132,0,132,0,212.6928598000086,,212.61595659999875,10,212.6928598000086,212.6928598000086,0.045487700001103804,214.24697460001335,[0.32],[-0.224],[1],[0],[0],[1.5860913999786135],['target'],574479,001,2024-10-04_11h07.39.760,VisualSearchTask,2024.1.5,None,2024-10-04 11h07.45.025555 +0530,
133,0,133,0,214.2941878999991,,214.24991610000143,10,214.2941878999991,214.2941878999991,0.026301800011424348,216.0164928000013,[0.166],[0.212],[1],[0],[0],[1.7404002999828663],['target'],574479,001,2024-10-04_11h07.39.760,VisualSearchTask,2024.1.5,None,2024-10-04 11h07.45.025555 +0530,
134,0,134,0,216.06301340000937,,216.02030840000953,10,216.06301340000937,216.06301340000937,0.032327799999620765,217.16650270001264,[0.064],[0.268],[1],[0],[0],[1.1146323000139091],['target'],574479,001,2024-10-04_11h07.39.760,VisualSearchTask,2024.1.5,None,2024-10-04 11h07.45.025555 +0530,
135,0,135,0,217.19726580000133,,217.1700430000201,5,217.19726580000133,217.19726580000133,0.01583540000137873,219.01863750000484,[-0.072],[-0.312],[1],[0],[0],[1.8330896999977995],['target'],574479,001,2024-10-04_11h07.39.760,VisualSearchTask,2024.1.5,None,2024-10-04 11h07.45.025555 +0530,
136,0,136,0,219.10005300000194,,219.0225485000119,10,219.10005300000194,219.10005300000194,0.04145950000383891,220.31977630002075,[0.176],[0.134],[1],[0],[0],[1.2562895999872126],['target'],574479,001,2024-10-04_11h07.39.760,VisualSearchTask,2024.1.5,None,2024-10-04 11h07.45.025555 +0530,
137,0,137,0,220.35083020001184,,220.32275400002254,5,220.35083020001184,220.35083020001184,0.014625899988459423,221.82251779999933,[0.484],[-0.348],[1],[0],[0],[1.485216600005515],[],574479,001,2024-10-04_11h07.39.760,VisualSearchTask,2024.1.5,None,2024-10-04 11h07.45.025555 +0530,
138,0,138,0,221.86919759999728,,221.82814330002293,5,221.86919759999728,221.86919759999728,0.018464199994923547,223.27381380001316,[0.332],[0.006],[1],[0],[0],[1.4281960999942385],['target'],574479,001,2024-10-04_11h07.39.760,VisualSearchTask,2024.1.5,None,2024-10-04 11h07.45.025555 +0530,
139,0,139,0,223.337408899999,,223.27861220002524,10,223.337408899999,223.337408899999,0.03955250000581145,224.7084565999976,[0.156],[0.42],[1],[0],[0],[1.390676099981647],['target'],574479,001,2024-10-04_11h07.39.760,VisualSearchTask,2024.1.5,None,2024-10-04 11h07.45.025555 +0530,
140,0,140,0,224.73903040000005,,224.71212070001638,5,224.73903040000005,224.73903040000005,0.01478950001182966,226.3108751999971,[-0.448],[0.36],[1],[0],[0],[1.5841631000221241],['target'],574479,001,2024-10-04_11h07.39.760,VisualSearchTask,2024.1.5,None,2024-10-04 11h07.45.025555 +0530,
141,0,141,0,226.37412410002435,,226.3170844000124,10,226.37412410002435,226.37412410002435,0.03281350000179373,227.87979980002274,[0.206],[0.324],[1],[0],[0],[1.5299953000212554],[],574479,001,2024-10-04_11h07.39.760,VisualSearchTask,2024.1.5,None,2024-10-04 11h07.45.025555 +0530,
142,0,142,0,227.92595610002172,,227.882652100001,10,227.92595610002172,227.92595610002172,0.026140500005567446,229.7969394000247,[0.404],[0.374],[1],[0],[0],[1.8883596000086982],['target'],574479,001,2024-10-04_11h07.39.760,VisualSearchTask,2024.1.5,None,2024-10-04 11h07.45.025555 +0530,
143,0,143,0,229.84453930001473,,229.80042820001836,10,229.84453930001473,229.84453930001473,0.028510100004496053,230.86643920000643,[0.45],[0.33],[1],[0],[0],[1.0375797000015154],['target'],574479,001,2024-10-04_11h07.39.760,VisualSearchTask,2024.1.5,None,2024-10-04 11h07.45.025555 +0530,
144,0,144,0,230.91250790000777,,230.87333220001892,5,230.91250790000777,230.91250790000777,0.018141499982448295,232.15047750002122,[0.056],[0.042],[1],[0],[0],[1.2595536000153515],['target'],574479,001,2024-10-04_11h07.39.760,VisualSearchTask,2024.1.5,None,2024-10-04 11h07.45.025555 +0530,
145,0,145,0,232.197232800012,,232.15558570000576,5,232.197232800012,232.197232800012,0.020562799996696413,233.4359248999972,[-0.258],[0.124],[1],[0],[0],[1.2601793000067119],['target'],574479,001,2024-10-04_11h07.39.760,VisualSearchTask,2024.1.5,None,2024-10-04 11h07.45.025555 +0530,
146,0,146,0,233.48258609999903,,233.44135600002483,5,233.48258609999903,233.48258609999903,0.01811579999048263,235.0542254000029,[0.212],[-0.49],[1],[0],[0],[1.5953829000063706],['target'],574479,001,2024-10-04_11h07.39.760,VisualSearchTask,2024.1.5,None,2024-10-04 11h07.45.025555 +0530,
147,0,147,0,235.08402090001618,,235.05774550000206,5,235.08402090001618,235.08402090001618,0.014999100007116795,236.60506709999754,[-0.268],[-0.302],[1],[0],[0],[1.5326078000070993],['target'],574479,001,2024-10-04_11h07.39.760,VisualSearchTask,2024.1.5,None,2024-10-04 11h07.45.025555 +0530,
148,0,148,0,236.66901280000457,,236.60826010000892,10,236.66901280000457,236.66901280000457,0.033751599985407665,238.0400176999974,[0.398],[-0.27],[1],[0],[0],[1.3983001000015065],['target'],574479,001,2024-10-04_11h07.39.760,VisualSearchTask,2024.1.5,None,2024-10-04 11h07.45.025555 +0530,
149,0,149,0,238.07044570002472,,238.04315240000142,5,238.07044570002472,238.07044570002472,0.015458900015801191,239.42633320001187,[-0.246],[0.154],[1],[0],[0],[1.3676923000020906],['target'],574479,001,2024-10-04_11h07.39.760,VisualSearchTask,2024.1.5,None,2024-10-04 11h07.45.025555 +0530,
150,0,150,0,239.50590580000426,,239.43272300000535,10,239.50590580000426,239.50590580000426,0.05182610001065768,240.9091912000149,[0.004],[-0.252],[1],[0],[0],[1.4254160999844316],['target'],574479,001,2024-10-04_11h07.39.760,VisualSearchTask,2024.1.5,None,2024-10-04 11h07.45.025555 +0530,
151,0,151,0,240.95684200001415,,240.91218040001695,10,240.95684200001415,240.95684200001415,0.02781100000720471,242.8459745,[0.26],[0.472],[1],[0],[0],[1.9057271000056062],['target'],574479,001,2024-10-04_11h07.39.760,VisualSearchTask,2024.1.5,None,2024-10-04 11h07.45.025555 +0530,
152,0,152,0,242.90896530001191,,242.8568035000062,10,242.90896530001191,242.90896530001191,0.04109430001699366,244.19784810001147,[0.256],[-0.116],[1],[0],[0],[1.3009792999946512],['target'],574479,001,2024-10-04_11h07.39.760,VisualSearchTask,2024.1.5,None,2024-10-04 11h07.45.025555 +0530,
153,0,153,0,244.26080090002506,,244.20495610000216,10,244.26080090002506,244.26080090002506,0.0373099000134971,245.61463580001146,[0.01],[0.444],[1],[0],[0],[1.3736300000164192],['target'],574479,001,2024-10-04_11h07.39.760,VisualSearchTask,2024.1.5,None,2024-10-04 11h07.45.025555 +0530,
154,0,154,0,245.6619714999979,,245.61792740001692,10,245.6619714999979,245.6619714999979,0.026392700005089864,247.46722160000354,[0.274],[0.138],[1],[0],[0],[1.823207800014643],['target'],574479,001,2024-10-04_11h07.39.760,VisualSearchTask,2024.1.5,None,2024-10-04 11h07.45.025555 +0530,
155,0,155,0,247.49746589999995,,247.47022280000965,5,247.49746589999995,247.49746589999995,0.015409899991936982,248.71865880000405,[0.162],[0.028],[1],[0],[0],[1.2332208000007086],['target'],574479,001,2024-10-04_11h07.39.760,VisualSearchTask,2024.1.5,None,2024-10-04 11h07.45.025555 +0530,
156,0,156,0,248.78240840000217,,248.72262830002,10,248.78240840000217,248.78240840000217,0.03502850001677871,250.70390510000288,[0.226],[-0.19],[1],[0],[0],[1.9465545999992173],['target'],574479,001,2024-10-04_11h07.39.760,VisualSearchTask,2024.1.5,None,2024-10-04 11h07.45.025555 +0530,
157,0,157,0,250.75099050000426,,250.7068693000183,10,250.75099050000426,250.75099050000426,0.0268004999961704,252.48939930001507,[-0.042],[0.12],[1],[0],[0],[1.7559395999996923],['target'],574479,001,2024-10-04_11h07.39.760,VisualSearchTask,2024.1.5,None,2024-10-04 11h07.45.025555 +0530,
158,0,158,0,252.5362374999968,,252.49302660001558,10,252.5362374999968,252.5362374999968,0.027537899994058535,254.0911503000243,[-0.25],[-0.412],[1],[0],[0],[1.5708473999984562],['target'],574479,001,2024-10-04_11h07.39.760,VisualSearchTask,2024.1.5,None,2024-10-04 11h07.45.025555 +0530,
159,0,159,0,254.13806900000782,,254.09449440002209,10,254.13806900000782,254.13806900000782,0.026647299993783236,255.99260830000276,[-0.366],[-0.216],[1],[0],[0],[1.871708499995293],['target'],574479,001,2024-10-04_11h07.39.760,VisualSearchTask,2024.1.5,None,2024-10-04 11h07.45.025555 +0530,
160,0,160,0,256.04012320001493,,255.99562450000667,10,256.04012320001493,256.04012320001493,0.02704200000152923,257.8782529000018,[0.046],[-0.244],[1],[0],[0],[1.85555020000902],['target'],574479,001,2024-10-04_11h07.39.760,VisualSearchTask,2024.1.5,None,2024-10-04 11h07.45.025555 +0530,
161,0,161,0,257.9760346999974,,257.8863315000199,10,257.9760346999974,257.9760346999974,0.06025349997798912,259.22926480000024,[-0.304],[-0.368],[1],[0],[0],[1.2838265000027604],['target'],574479,001,2024-10-04_11h07.39.760,VisualSearchTask,2024.1.5,None,2024-10-04 11h07.45.025555 +0530,
162,0,162,0,259.2612755000009,,259.23224430001574,5,259.2612755000009,259.2612755000009,0.013931299996329471,260.71454010001617,[0.208],[0.286],[1],[0],[0],[1.4684942000021692],['target'],574479,001,2024-10-04_11h07.39.760,VisualSearchTask,2024.1.5,None,2024-10-04 11h07.45.025555 +0530,
163,0,163,0,260.77899430002435,,260.71819360001246,10,260.77899430002435,260.77899430002435,0.034310299990465865,262.1996933000046,[-0.398],[-0.292],[1],[0],[0],[1.447504800016759],['target'],574479,001,2024-10-04_11h07.39.760,VisualSearchTask,2024.1.5,None,2024-10-04 11h07.45.025555 +0530,
164,0,164,0,262.2303451000189,,262.2026614000206,5,262.2303451000189,262.2303451000189,0.014644400012912229,264.270460300002,[-0.242],[0.47],[1],[0],[0],[2.053125300008105],['target'],574479,001,2024-10-04_11h07.39.760,VisualSearchTask,2024.1.5,None,2024-10-04 11h07.45.025555 +0530,
165,0,165,0,264.3161478000111,,264.2768511000031,5,264.3161478000111,264.3161478000111,0.02131870001903735,265.5868772000249,[-0.4],[0.326],[1],[0],[0],[1.289566699997522],['target'],574479,001,2024-10-04_11h07.39.760,VisualSearchTask,2024.1.5,None,2024-10-04 11h07.45.025555 +0530,
166,0,166,0,265.63403149999795,,265.58979470000486,10,265.63403149999795,265.63403149999795,0.026035300019429997,266.8708436000161,[-0.22],[-0.044],[1],[0],[0],[1.2551541999855544],['target'],574479,001,2024-10-04_11h07.39.760,VisualSearchTask,2024.1.5,None,2024-10-04 11h07.45.025555 +0530,
167,0,167,0,266.93625620001694,,266.8746975999966,10,266.93625620001694,266.93625620001694,0.03016970001044683,268.0053339000151,[-0.34],[0.052],[1],[0],[0],[1.1008350999909453],['target'],574479,001,2024-10-04_11h07.39.760,VisualSearchTask,2024.1.5,None,2024-10-04 11h07.45.025555 +0530,
168,0,168,0,268.0879749000014,,268.0108464000223,10,268.0879749000014,268.0879749000014,0.04750320001039654,269.30763429999934,[-0.18],[0.26],[1],[0],[0],[1.2500110999972094],['target'],574479,001,2024-10-04_11h07.39.760,VisualSearchTask,2024.1.5,None,2024-10-04 11h07.45.025555 +0530,
169,0,169,0,269.37202810001327,,269.31169990001945,10,269.37202810001327,269.37202810001327,0.03431500002625398,270.7926562000066,[0.302],[-0.294],[1],[0],[0],[1.4468229999765754],['target'],574479,001,2024-10-04_11h07.39.760,VisualSearchTask,2024.1.5,None,2024-10-04 11h07.45.025555 +0530,
170,0,170,0,270.89039620000403,,270.79964770001243,10,270.89039620000403,270.89039620000403,0.05638689998886548,272.2118741000013,[-0.028],[-0.38],[1],[0],[0],[1.3569546000217088],[],574479,001,2024-10-04_11h07.39.760,VisualSearchTask,2024.1.5,None,2024-10-04 11h07.45.025555 +0530,
171,0,171,0,272.2413271999976,,272.2165403000254,5,272.2413271999976,272.2413271999976,0.016425999987404794,273.89581410001847,[0.39],[0.084],[1],[0],[0],[1.6633363000000827],['target'],574479,001,2024-10-04_11h07.39.760,VisualSearchTask,2024.1.5,None,2024-10-04 11h07.45.025555 +0530,
172,0,172,0,273.9438680000021,,273.9001720000233,5,273.9438680000021,273.9438680000021,0.02217820001533255,275.14721980001195,[0.286],[0.452],[1],[0],[0],[1.2253777000005357],['target'],574479,001,2024-10-04_11h07.39.760,VisualSearchTask,2024.1.5,None,2024-10-04 11h07.45.025555 +0530,
173,0,173,0,275.1946673000057,,275.1507840999984,10,275.1946673000057,275.1946673000057,0.02619750000303611,276.7329021000187,[-0.108],[-0.468],[1],[0],[0],[1.556231199996546],['target'],574479,001,2024-10-04_11h07.39.760,VisualSearchTask,2024.1.5,None,2024-10-04 11h07.45.025555 +0530,
174,0,174,0,276.7797247999988,,276.73588560000644,10,276.7797247999988,276.7797247999988,0.027620700013358146,278.01626630002283,[0.4],[0.244],[1],[0],[0],[1.252851199998986],['target'],574479,001,2024-10-04_11h07.39.760,VisualSearchTask,2024.1.5,None,2024-10-04 11h07.45.025555 +0530,
175,0,175,0,278.0811493000074,,278.0200492000149,10,278.0811493000074,278.0811493000074,0.031830099993385375,279.65230770001654,[0.358],[0.276],[1],[0],[0],[1.6003429999982473],['target'],574479,001,2024-10-04_11h07.39.760,VisualSearchTask,2024.1.5,None,2024-10-04 11h07.45.025555 +0530,
176,0,176,0,279.7328695000033,,279.6593710000161,10,279.7328695000033,279.7328695000033,0.055747800011886284,281.00513820000924,[-0.078],[0.02],[1],[0],[0],[1.2910269999993034],['target'],574479,001,2024-10-04_11h07.39.760,VisualSearchTask,2024.1.5,None,2024-10-04 11h07.45.025555 +0530,
177,0,177,0,281.0846501000051,,281.01235070000985,10,281.0846501000051,281.0846501000051,0.0444329000019934,282.52192330002435,[0.236],[0.004],[1],[0],[0],[1.4663345000008121],['target'],574479,001,2024-10-04_11h07.39.760,VisualSearchTask,2024.1.5,None,2024-10-04 11h07.45.025555 +0530,
178,0,178,0,282.56997599999886,,282.52672039999743,5,282.56997599999886,282.56997599999886,0.018220199999632314,284.44114200002514,[-0.288],[-0.458],[1],[0],[0],[1.8968230000173207],['target'],574479,001,2024-10-04_11h07.39.760,VisualSearchTask,2024.1.5,None,2024-10-04 11h07.45.025555 +0530,
179,0,179,0,284.5054720000189,,284.4452355999965,10,284.5054720000189,284.5054720000189,0.0357555000227876,288.362188900006,[-0.396],[-0.14],[1],[0],[0],[3.8815325999748893],['target'],574479,001,2024-10-04_11h07.39.760,VisualSearchTask,2024.1.5,None,2024-10-04 11h07.45.025555 +0530,
180,0,180,0,288.42637280002236,,288.36647920001997,10,288.42637280002236,288.42637280002236,0.030629600019892678,289.67969000001904,[-0.206],[-0.276],[1],[0],[0],[1.2825837999989744],['target'],574479,001,2024-10-04_11h07.39.760,VisualSearchTask,2024.1.5,None,2024-10-04 11h07.45.025555 +0530,
181,0,181,0,289.74402120002196,,289.68719150000834,10,289.74402120002196,289.74402120002196,0.04097560001537204,290.94861970000784,[-0.252],[0.17],[1],[0],[0],[1.2220970000198577],['target'],574479,001,2024-10-04_11h07.39.760,VisualSearchTask,2024.1.5,None,2024-10-04 11h07.45.025555 +0530,
182,0,182,0,290.99531800000113,,290.9515946000174,10,290.99531800000113,290.99531800000113,0.02654740001889877,292.1828261000046,[0.228],[-0.074],[1],[0],[0],[1.2048528000013903],['target'],574479,001,2024-10-04_11h07.39.760,VisualSearchTask,2024.1.5,None,2024-10-04 11h07.45.025555 +0530,
183,0,183,0,292.22994750001817,,292.18578270002035,10,292.22994750001817,292.22994750001817,0.026441199996042997,293.71728989999974,[0.02],[-0.188],[1],[0],[0],[1.5051995999820065],['target'],574479,001,2024-10-04_11h07.39.760,VisualSearchTask,2024.1.5,None,2024-10-04 11h07.45.025555 +0530,
184,0,184,0,293.76512190001085,,293.72019770002225,10,293.76512190001085,293.76512190001085,0.028585499996552244,295.63626150001073,[-0.38],[-0.058],[1],[0],[0],[1.8873873999982607],['target'],574479,001,2024-10-04_11h07.39.760,VisualSearchTask,2024.1.5,None,2024-10-04 11h07.45.025555 +0530,
185,0,185,0,295.7013522000052,,295.6436531000072,5,295.7013522000052,295.7013522000052,0.03202049998799339,297.27194380000583,[0.244],[-0.356],[1],[0],[0],[1.5977199999906588],[],574479,001,2024-10-04_11h07.39.760,VisualSearchTask,2024.1.5,None,2024-10-04 11h07.45.025555 +0530,
186,0,186,0,297.31912739999825,,297.27489810000407,10,297.31912739999825,297.31912739999825,0.029118699982063845,298.7397301000019,[0.008],[0.274],[1],[0],[0],[1.4359160999883898],['target'],574479,001,2024-10-04_11h07.39.760,VisualSearchTask,2024.1.5,None,2024-10-04 11h07.45.025555 +0530,
187,0,187,0,298.77059040000313,,298.74266340001486,5,298.77059040000313,298.77059040000313,0.01451680000172928,300.52573100000154,[-0.228],[0.092],[1],[0],[0],[1.7686926999886055],['target'],574479,001,2024-10-04_11h07.39.760,VisualSearchTask,2024.1.5,None,2024-10-04 11h07.45.025555 +0530,
188,0,188,0,300.5557648999966,,300.5293602000165,5,300.5557648999966,300.5557648999966,0.015360299992607906,302.3781660000095,[0.428],[-0.31],[1],[0],[0],[1.8336414000077639],['target'],574479,001,2024-10-04_11h07.39.760,VisualSearchTask,2024.1.5,None,2024-10-04 11h07.45.025555 +0530,
189,0,189,0,302.4247717000253,,302.38469770000665,5,302.4247717000253,302.4247717000253,0.01896300000953488,303.8249685000046,[-0.052],[0.094],[1],[0],[0],[1.4211740999890026],['target'],574479,001,2024-10-04_11h07.39.760,VisualSearchTask,2024.1.5,None,2024-10-04 11h07.45.025555 +0530,
190,0,190,0,303.8770509000169,,303.829261100007,5,303.8770509000169,303.8770509000169,0.023773300024913624,305.4471327000065,[0.466],[-0.32],[1],[0],[0],[1.594598900002893],['target'],574479,001,2024-10-04_11h07.39.760,VisualSearchTask,2024.1.5,None,2024-10-04 11h07.45.025555 +0530,
191,0,191,0,305.49460030000773,,305.45121369999833,10,305.49460030000773,305.49460030000773,0.02775029998156242,307.13257300000987,[0.444],[-0.452],[1],[0],[0],[1.653868199995486],['target'],574479,001,2024-10-04_11h07.39.760,VisualSearchTask,2024.1.5,None,2024-10-04 11h07.45.025555 +0530,
192,0,192,0,307.1631634000223,,307.13693180002156,5,307.1631634000223,307.1631634000223,0.017806199990445748,308.5681058000191,[-0.184],[-0.362],[1],[0],[0],[1.4139625999960117],['target'],574479,001,2024-10-04_11h07.39.760,VisualSearchTask,2024.1.5,None,2024-10-04 11h07.45.025555 +0530,
193,0,193,0,308.61462110001594,,308.5711921000038,10,308.61462110001594,308.61462110001594,0.02680949997738935,310.15194650000194,[-0.45],[0.154],[1],[0],[0],[1.5542895999969915],['target'],574479,001,2024-10-04_11h07.39.760,VisualSearchTask,2024.1.5,None,2024-10-04 11h07.45.025555 +0530,
194,0,194,0,310.183102400013,,310.1549072000198,5,310.183102400013,310.183102400013,0.014271400024881586,311.7896720000135,[0.026],[-0.388],[1],[0],[0],[1.6205634999787435],['target'],574479,001,2024-10-04_11h07.39.760,VisualSearchTask,2024.1.5,None,2024-10-04 11h07.45.025555 +0530,
195,0,195,0,311.8515724000172,,311.79434630001197,10,311.8515724000172,311.8515724000172,0.04108959998120554,313.40815070000826,[0.294],[-0.434],[1],[0],[0],[1.5732889999926556],['target'],574479,001,2024-10-04_11h07.39.760,VisualSearchTask,2024.1.5,None,2024-10-04 11h07.45.025555 +0530,
196,0,196,0,313.4365924000158,,313.4126516999968,5,313.4365924000158,313.4365924000158,0.01649609999731183,314.9100059000193,[0.298],[-0.226],[1],[0],[0],[1.4813655999896582],['target'],574479,001,2024-10-04_11h07.39.760,VisualSearchTask,2024.1.5,None,2024-10-04 11h07.45.025555 +0530,
197,0,197,0,314.9559219000221,,314.91388330000336,5,314.9559219000221,314.9559219000221,0.021065100008854643,316.44285970000783,[-0.3],[-0.076],[1],[0],[0],[1.5083049999957439],['target'],574479,001,2024-10-04_11h07.39.760,VisualSearchTask,2024.1.5,None,2024-10-04 11h07.45.025555 +0530,
198,0,198,0,316.507145200012,,316.4490219000145,10,316.507145200012,316.507145200012,0.03559409998706542,317.8113035999995,[-0.22],[-0.162],[1],[0],[0],[1.3279571999737527],['target'],574479,001,2024-10-04_11h07.39.760,VisualSearchTask,2024.1.5,None,2024-10-04 11h07.45.025555 +0530,
199,0,199,0,317.8761713000131,,317.81813420000253,5,317.8761713000131,317.8761713000131,0.031005800003185868,319.34734670000034,[-0.328],[0.372],[1],[0],[0],[1.4990725999814458],['target'],574479,001,2024-10-04_11h07.39.760,VisualSearchTask,2024.1.5,None,2024-10-04 11h07.45.025555 +0530,
