trials.thisRepN,trials.thisTrialN,trials.thisN,trials.thisIndex,thisRow.t,notes,trial.started,num_distr,fixation.started,target.started,mouse.started,trial.stopped,mouse.x,mouse.y,mouse.leftButton,mouse.midButton,mouse.rightButton,mouse.time,mouse.clicked_name,participant,session,date,expName,psychopyVersion,frameRate,expStart,
0,0,0,0,0.046902500092983246,,0.016375700011849403,5,0.046902500092983246,0.046902500092983246,0.034581099869683385,4.589835100108758,[-0.152],[0.38],[1],[0],[0],[4.554350199876353],[],579803,001,2024-10-01_23h36.53.055,VisualSearchTask,2024.1.5,None,2024-10-01 23h36.57.707411 +0530,
1,0,1,0,4.635828600032255,,4.593157900031656,10,4.635828600032255,4.635828600032255,0.021555199986323714,10.26111329998821,[-0.046],[-0.026],[1],[0],[0],[5.646382699953392],['target'],579803,001,2024-10-01_23h36.53.055,VisualSearchTask,2024.1.5,None,2024-10-01 23h36.57.707411 +0530,
2,0,2,0,10.292266699951142,,10.263296500081196,5,10.292266699951142,10.292266699951142,0.010744899976998568,12.897748100105673,[-0.244],[-0.316],[1],[0],[0],[2.6238350002095103],['target'],579803,001,2024-10-01_23h36.53.055,VisualSearchTask,2024.1.5,None,2024-10-01 23h36.57.707411 +0530,
3,0,3,0,12.9281182999257,,12.900132100097835,5,12.9281182999257,12.9281182999257,0.01426189998164773,14.649604400154203,[0.356],[-0.014],[1],[0],[0],[1.735257200198248],['target'],579803,001,2024-10-01_23h36.53.055,VisualSearchTask,2024.1.5,None,2024-10-01 23h36.57.707411 +0530,
4,0,4,0,14.696981800021604,,14.652605300070718,10,14.696981800021604,14.696981800021604,0.022087099961936474,17.786390700144693,[0.372],[0.434],[1],[0],[0],[3.111863800091669],['target'],579803,001,2024-10-01_23h36.53.055,VisualSearchTask,2024.1.5,None,2024-10-01 23h36.57.707411 +0530,
5,0,5,0,17.83359279995784,,17.788572899997234,10,17.83359279995784,17.83359279995784,0.02317669987678528,20.42207460012287,[0.272],[0.23],[1],[0],[0],[2.6102505999151617],['target'],579803,001,2024-10-01_23h36.53.055,VisualSearchTask,2024.1.5,None,2024-10-01 23h36.57.707411 +0530,
6,0,6,0,20.470057500060648,,20.424264300148934,10,20.470057500060648,20.470057500060648,0.02196469996124506,23.191566300112754,[0.06],[-0.146],[1],[0],[0],[2.7453180998563766],['target'],579803,001,2024-10-01_23h36.53.055,VisualSearchTask,2024.1.5,None,2024-10-01 23h36.57.707411 +0530,
7,0,7,0,23.222863800125197,,23.193743200041354,5,23.222863800125197,23.222863800125197,0.010609300108626485,24.827564400155097,[-0.152],[-0.234],[1],[0],[0],[1.6232108999975026],['target'],579803,001,2024-10-01_23h36.53.055,VisualSearchTask,2024.1.5,None,2024-10-01 23h36.57.707411 +0530,
8,0,8,0,24.85816189995967,,24.829685400007293,5,24.85816189995967,24.85816189995967,0.012229700107127428,27.679666900075972,[-0.292],[0.494],[1],[0],[0],[2.837713500019163],['target'],579803,001,2024-10-01_23h36.53.055,VisualSearchTask,2024.1.5,None,2024-10-01 23h36.57.707411 +0530,
9,0,9,0,27.710937600117177,,27.68182580010034,10,27.710937600117177,27.710937600117177,0.020703000016510487,31.451715300092474,[-0.11],[-0.294],[1],[0],[0],[3.749113299883902],['target'],579803,001,2024-10-01_23h36.53.055,VisualSearchTask,2024.1.5,None,2024-10-01 23h36.57.707411 +0530,
10,0,10,0,31.482220200123265,,31.453876900020987,5,31.482220200123265,31.482220200123265,0.011214599944651127,33.40339750004932,[0.486],[0.066],[1],[0],[0],[1.9383057998493314],['target'],579803,001,2024-10-01_23h36.53.055,VisualSearchTask,2024.1.5,None,2024-10-01 23h36.57.707411 +0530,
11,0,11,0,33.450868600048125,,33.40555080003105,10,33.450868600048125,33.450868600048125,0.02165639982558787,35.43912809994072,[0.228],[0.18],[1],[0],[0],[2.011850400129333],[],579803,001,2024-10-01_23h36.53.055,VisualSearchTask,2024.1.5,None,2024-10-01 23h36.57.707411 +0530,
12,0,12,0,35.48651499999687,,35.44135380000807,10,35.48651499999687,35.48651499999687,0.021710900124162436,37.707992299925536,[-0.286],[0.26],[1],[0],[0],[2.244929699925706],['target'],579803,001,2024-10-01_23h36.53.055,VisualSearchTask,2024.1.5,None,2024-10-01 23h36.57.707411 +0530,
13,0,13,0,37.73886139993556,,37.71016820007935,5,37.73886139993556,37.73886139993556,0.011340899858623743,40.928413399960846,[-0.332],[-0.372],[1],[0],[0],[3.20685109985061],['target'],579803,001,2024-10-01_23h36.53.055,VisualSearchTask,2024.1.5,None,2024-10-01 23h36.57.707411 +0530,
14,0,14,0,40.97603960009292,,40.930678999982774,10,40.97603960009292,40.97603960009292,0.022155400132760406,44.13236750010401,[-0.332],[0.162],[1],[0],[0],[3.179574699839577],['target'],579803,001,2024-10-01_23h36.53.055,VisualSearchTask,2024.1.5,None,2024-10-01 23h36.57.707411 +0530,
15,0,15,0,44.17960839997977,,44.13464920013212,10,44.17960839997977,44.17960839997977,0.02155229984782636,48.00325770000927,[0.384],[-0.21],[1],[0],[0],[3.8468945999629796],['target'],579803,001,2024-10-01_23h36.53.055,VisualSearchTask,2024.1.5,None,2024-10-01 23h36.57.707411 +0530,
16,0,16,0,48.05029510008171,,48.00866740010679,5,48.05029510008171,48.05029510008171,0.02374000009149313,50.394585700007156,[-0.484],[0.282],[1],[0],[0],[2.3628171999007463],['target'],579803,001,2024-10-01_23h36.53.055,VisualSearchTask,2024.1.5,None,2024-10-01 23h36.57.707411 +0530,
17,0,17,0,50.474076099926606,,50.398919800063595,10,50.474076099926606,50.474076099926606,0.04621420009061694,52.12461520009674,[0.064],[0.374],[1],[0],[0],[1.6799285002052784],['target'],579803,001,2024-10-01_23h36.53.055,VisualSearchTask,2024.1.5,None,2024-10-01 23h36.57.707411 +0530,
18,0,18,0,52.15472450014204,,52.126838400028646,5,52.15472450014204,52.15472450014204,0.011118799913674593,54.82708250009455,[0.044],[-0.422],[1],[0],[0],[2.68905740021728],['target'],579803,001,2024-10-01_23h36.53.055,VisualSearchTask,2024.1.5,None,2024-10-01 23h36.57.707411 +0530,
19,0,19,0,54.87466290011071,,54.82934039994143,10,54.87466290011071,54.87466290011071,0.023736799834296107,57.39601680007763,[-0.024],[0.124],[1],[0],[0],[2.54302590014413],['target'],579803,001,2024-10-01_23h36.53.055,VisualSearchTask,2024.1.5,None,2024-10-01 23h36.57.707411 +0530,
20,0,20,0,57.42689280002378,,57.3984846000094,5,57.42689280002378,57.42689280002378,0.017625899985432625,58.915010400116444,[-0.284],[-0.142],[1],[0],[0],[1.4988845000043511],['target'],579803,001,2024-10-01_23h36.53.055,VisualSearchTask,2024.1.5,None,2024-10-01 23h36.57.707411 +0530,
21,0,21,0,58.94530709995888,,58.91714549995959,5,58.94530709995888,58.94530709995888,0.014430100098252296,60.86704539996572,[-0.244],[0.406],[1],[0],[0],[1.935469500022009],['target'],579803,001,2024-10-01_23h36.53.055,VisualSearchTask,2024.1.5,None,2024-10-01 23h36.57.707411 +0530,
22,0,22,0,60.89773500012234,,60.869172299979255,5,60.89773500012234,60.89773500012234,0.010559399845078588,62.535836700117216,[-0.494],[-0.002],[1],[0],[0],[1.6560712999198586],['target'],579803,001,2024-10-01_23h36.53.055,VisualSearchTask,2024.1.5,None,2024-10-01 23h36.57.707411 +0530,
23,0,23,0,62.58283969992772,,62.53805380011909,10,62.58283969992772,62.58283969992772,0.021461399970576167,64.60402640001848,[0.436],[0.128],[1],[0],[0],[2.0445220000110567],['target'],579803,001,2024-10-01_23h36.53.055,VisualSearchTask,2024.1.5,None,2024-10-01 23h36.57.707411 +0530,
24,0,24,0,64.63507600012235,,64.60617320006713,5,64.63507600012235,64.63507600012235,0.010827899910509586,66.47301040007733,[-0.146],[-0.156],[1],[0],[0],[1.8560898997820914],['target'],579803,001,2024-10-01_23h36.53.055,VisualSearchTask,2024.1.5,None,2024-10-01 23h36.57.707411 +0530,
25,0,25,0,66.5041954999324,,66.47547720000148,5,66.5041954999324,66.5041954999324,0.014815399888902903,68.95912860007957,[0.42],[0.406],[1],[0],[0],[2.468887499999255],['target'],579803,001,2024-10-01_23h36.53.055,VisualSearchTask,2024.1.5,None,2024-10-01 23h36.57.707411 +0530,
26,0,26,0,69.00676620006561,,68.96127690002322,10,69.00676620006561,69.00676620006561,0.021614799974486232,71.52914960007183,[0.168],[-0.15],[1],[0],[0],[2.546214000089094],['target'],579803,001,2024-10-01_23h36.53.055,VisualSearchTask,2024.1.5,None,2024-10-01 23h36.57.707411 +0530,
27,0,27,0,71.55958350002766,,71.5315587001387,5,71.55958350002766,71.55958350002766,0.011417000088840723,73.58151419996284,[0.452],[0.436],[1],[0],[0],[2.0386263001710176],['target'],579803,001,2024-10-01_23h36.53.055,VisualSearchTask,2024.1.5,None,2024-10-01 23h36.57.707411 +0530,
28,0,28,0,73.61167170014232,,73.58365539996885,5,73.61167170014232,73.61167170014232,0.012094000121578574,76.85118700005114,[-0.276],[-0.48],[1],[0],[0],[3.2554189001675695],['target'],579803,001,2024-10-01_23h36.53.055,VisualSearchTask,2024.1.5,None,2024-10-01 23h36.57.707411 +0530,
29,0,29,0,76.88209720002487,,76.85337690007873,5,76.88209720002487,76.88209720002487,0.011605100007727742,79.25357880000956,[-0.176],[0.436],[1],[0],[0],[2.388497999869287],['target'],579803,001,2024-10-01_23h36.53.055,VisualSearchTask,2024.1.5,None,2024-10-01 23h36.57.707411 +0530,
30,0,30,0,79.3014488001354,,79.2557775999885,10,79.3014488001354,79.3014488001354,0.02296190010383725,81.57394729997031,[0.13],[-0.184],[1],[0],[0],[2.2951632000040263],['target'],579803,001,2024-10-01_23h36.53.055,VisualSearchTask,2024.1.5,None,2024-10-01 23h36.57.707411 +0530,
31,0,31,0,81.60399880004115,,81.57620709994808,5,81.60399880004115,81.60399880004115,0.014378999825567007,83.55875960015692,[0.41],[-0.18],[1],[0],[0],[1.9681553000118583],['target'],579803,001,2024-10-01_23h36.53.055,VisualSearchTask,2024.1.5,None,2024-10-01 23h36.57.707411 +0530,
32,0,32,0,83.60597959998995,,83.56089129997417,10,83.60597959998995,83.60597959998995,0.020773400086909533,85.67802039999515,[-0.196],[0.124],[1],[0],[0],[2.0964205998461694],['target'],579803,001,2024-10-01_23h36.53.055,VisualSearchTask,2024.1.5,None,2024-10-01 23h36.57.707411 +0530,
33,0,33,0,85.7246354999952,,85.68049330008216,10,85.7246354999952,85.7246354999952,0.03232529992237687,86.97869050013833,[-0.232],[0.234],[1],[0],[0],[1.2658808000851423],['target'],579803,001,2024-10-01_23h36.53.055,VisualSearchTask,2024.1.5,None,2024-10-01 23h36.57.707411 +0530,
34,0,34,0,87.02669600001536,,86.98086909996346,10,87.02669600001536,87.02669600001536,0.022563599981367588,88.79741009999998,[0.178],[-0.076],[1],[0],[0],[1.793905399972573],['target'],579803,001,2024-10-01_23h36.53.055,VisualSearchTask,2024.1.5,None,2024-10-01 23h36.57.707411 +0530,
35,0,35,0,88.8286187001504,,88.79962630011141,5,88.8286187001504,88.8286187001504,0.010934200137853622,90.93380660004914,[-0.19],[0.35],[1],[0],[0],[2.123242400120944],['target'],579803,001,2024-10-01_23h36.53.055,VisualSearchTask,2024.1.5,None,2024-10-01 23h36.57.707411 +0530,
36,0,36,0,90.9813024001196,,90.93599090003408,10,90.9813024001196,90.9813024001196,0.023769699968397617,95.0037253999617,[-0.086],[-0.484],[1],[0],[0],[4.044082700042054],['target'],579803,001,2024-10-01_23h36.53.055,VisualSearchTask,2024.1.5,None,2024-10-01 23h36.57.707411 +0530,
37,0,37,0,95.05165840010159,,95.0061079999432,10,95.05165840010159,95.05165840010159,0.02608079998753965,97.2732577000279,[0.108],[-0.088],[1],[0],[0],[2.2411706999409944],['target'],579803,001,2024-10-01_23h36.53.055,VisualSearchTask,2024.1.5,None,2024-10-01 23h36.57.707411 +0530,
38,0,38,0,97.30478879995644,,97.27559780003503,5,97.30478879995644,97.30478879995644,0.013634900096803904,99.10907170013525,[-0.078],[-0.212],[1],[0],[0],[1.8199012000113726],[],579803,001,2024-10-01_23h36.53.055,VisualSearchTask,2024.1.5,None,2024-10-01 23h36.57.707411 +0530,
39,0,39,0,99.1402342999354,,99.11120510008186,5,99.1402342999354,99.1402342999354,0.010739099932834506,100.81112670013681,[-0.436],[0.048],[1],[0],[0],[1.6892926001455635],['target'],579803,001,2024-10-01_23h36.53.055,VisualSearchTask,2024.1.5,None,2024-10-01 23h36.57.707411 +0530,
40,0,40,0,100.85870570014231,,100.81348849995993,10,100.85870570014231,100.85870570014231,0.023401499958708882,102.99629110004753,[0.292],[0.142],[1],[0],[0],[2.1594104000832886],['target'],579803,001,2024-10-01_23h36.53.055,VisualSearchTask,2024.1.5,None,2024-10-01 23h36.57.707411 +0530,
41,0,41,0,103.02756720012985,,102.99846819997765,5,103.02756720012985,103.02756720012985,0.013594900025054812,104.98212740011513,[-0.09],[0.188],[1],[0],[0],[1.970105899963528],['target'],579803,001,2024-10-01_23h36.53.055,VisualSearchTask,2024.1.5,None,2024-10-01 23h36.57.707411 +0530,
42,0,42,0,105.02931799995713,,104.98650959995575,10,105.02931799995713,105.02931799995713,0.026288399938493967,106.73389389994554,[0.404],[0.116],[1],[0],[0],[1.7215231000445783],['target'],579803,001,2024-10-01_23h36.53.055,VisualSearchTask,2024.1.5,None,2024-10-01 23h36.57.707411 +0530,
43,0,43,0,106.78183600003831,,106.73607750004157,10,106.78183600003831,106.78183600003831,0.022597000002861023,108.45247639995068,[0.022],[0.312],[1],[0],[0],[1.693728000158444],['target'],579803,001,2024-10-01_23h36.53.055,VisualSearchTask,2024.1.5,None,2024-10-01 23h36.57.707411 +0530,
44,0,44,0,108.50044060009532,,108.45461799995974,10,108.50044060009532,108.50044060009532,0.024055900052189827,110.75558810005896,[0.024],[-0.448],[1],[0],[0],[2.276766400085762],['target'],579803,001,2024-10-01_23h36.53.055,VisualSearchTask,2024.1.5,None,2024-10-01 23h36.57.707411 +0530,
45,0,45,0,110.8028731001541,,110.7578106999863,10,110.8028731001541,110.8028731001541,0.028944300021976233,113.15762030007318,[-0.45],[-0.282],[1],[0],[0],[2.3708548001013696],['target'],579803,001,2024-10-01_23h36.53.055,VisualSearchTask,2024.1.5,None,2024-10-01 23h36.57.707411 +0530,
46,0,46,0,113.20557290012948,,113.15982730011456,10,113.20557290012948,113.20557290012948,0.02329410007223487,115.54370249994099,[-0.004],[0.3],[1],[0],[0],[2.3605880001559854],['target'],579803,001,2024-10-01_23h36.53.055,VisualSearchTask,2024.1.5,None,2024-10-01 23h36.57.707411 +0530,
47,0,47,0,115.57475659996271,,115.54586199996993,5,115.57475659996271,115.57475659996271,0.010958600090816617,117.9296808000654,[0.104],[-0.204],[1],[0],[0],[2.372823700075969],['target'],579803,001,2024-10-01_23h36.53.055,VisualSearchTask,2024.1.5,None,2024-10-01 23h36.57.707411 +0530,
48,0,48,0,117.97745690005831,,117.93192490004003,10,117.97745690005831,117.97745690005831,0.022254399955272675,119.79895430011675,[0.152],[-0.096],[1],[0],[0],[1.8446098000276834],['target'],579803,001,2024-10-01_23h36.53.055,VisualSearchTask,2024.1.5,None,2024-10-01 23h36.57.707411 +0530,
49,0,49,0,119.84614300006069,,119.80111719993874,10,119.84614300006069,119.84614300006069,0.02280400018207729,121.10005360003561,[-0.108],[0.052],[1],[0],[0],[1.276092299958691],['target'],579803,001,2024-10-01_23h36.53.055,VisualSearchTask,2024.1.5,None,2024-10-01 23h36.57.707411 +0530,
50,0,50,0,121.1474558999762,,121.10227779997513,10,121.1474558999762,121.1474558999762,0.021722800098359585,122.68550299992785,[0.09],[0.222],[1],[0],[0],[1.5614114000927657],['target'],579803,001,2024-10-01_23h36.53.055,VisualSearchTask,2024.1.5,None,2024-10-01 23h36.57.707411 +0530,
51,0,51,0,122.71605920000002,,122.68767060013488,5,122.71605920000002,122.71605920000002,0.011411299929022789,124.73694110009819,[-0.442],[0.488],[1],[0],[0],[2.037796299904585],['target'],579803,001,2024-10-01_23h36.53.055,VisualSearchTask,2024.1.5,None,2024-10-01 23h36.57.707411 +0530,
52,0,52,0,124.78494139993563,,124.7391105000861,10,124.78494139993563,124.78494139993563,0.021890300093218684,126.70676690014079,[0.306],[0.162],[1],[0],[0],[1.9457592000253499],['target'],579803,001,2024-10-01_23h36.53.055,VisualSearchTask,2024.1.5,None,2024-10-01 23h36.57.707411 +0530,
53,0,53,0,126.73714620014653,,126.70891929999925,5,126.73714620014653,126.73714620014653,0.013720200164243579,128.7752158001531,[0.088],[-0.02],[1],[0],[0],[2.05250950017944],['target'],579803,001,2024-10-01_23h36.53.055,VisualSearchTask,2024.1.5,None,2024-10-01 23h36.57.707411 +0530,
54,0,54,0,128.8225953001529,,128.77764139999636,10,128.8225953001529,128.8225953001529,0.030394300119951367,130.86042109993286,[0.256],[0.33],[1],[0],[0],[2.052374399965629],['target'],579803,001,2024-10-01_23h36.53.055,VisualSearchTask,2024.1.5,None,2024-10-01 23h36.57.707411 +0530,
55,0,55,0,130.89165250002407,,130.86306739994325,5,130.89165250002407,130.89165250002407,0.011203799862414598,132.71309460001066,[-0.316],[0.154],[1],[0],[0],[1.8388399998657405],['target'],579803,001,2024-10-01_23h36.53.055,VisualSearchTask,2024.1.5,None,2024-10-01 23h36.57.707411 +0530,
56,0,56,0,132.76045699999668,,132.715247400105,10,132.76045699999668,132.76045699999668,0.021837100153788924,135.31563950004056,[-0.322],[-0.224],[1],[0],[0],[2.578534800093621],['target'],579803,001,2024-10-01_23h36.53.055,VisualSearchTask,2024.1.5,None,2024-10-01 23h36.57.707411 +0530,
57,0,57,0,135.34621870005503,,135.31778410007246,5,135.34621870005503,135.34621870005503,0.010976599995046854,137.01706730015576,[-0.062],[0.07],[1],[0],[0],[1.6882718000561],['target'],579803,001,2024-10-01_23h36.53.055,VisualSearchTask,2024.1.5,None,2024-10-01 23h36.57.707411 +0530,
58,0,58,0,137.0651766001247,,137.01924400008284,10,137.0651766001247,137.0651766001247,0.021712299901992083,138.71912860008888,[-0.434],[0.0],[1],[0],[0],[1.678144000004977],['target'],579803,001,2024-10-01_23h36.53.055,VisualSearchTask,2024.1.5,None,2024-10-01 23h36.57.707411 +0530,
59,0,59,0,138.75036730011925,,138.72157280007377,5,138.75036730011925,138.75036730011925,0.010349999880418181,140.27086220006458,[0.04],[0.248],[1],[0],[0],[1.5388956000097096],['target'],579803,001,2024-10-01_23h36.53.055,VisualSearchTask,2024.1.5,None,2024-10-01 23h36.57.707411 +0530,
60,0,60,0,140.318620899925,,140.27302970015444,10,140.318620899925,140.318620899925,0.02246699994429946,142.53968030004762,[-0.502],[-0.212],[1],[0],[0],[2.2440537998918444],['target'],579803,001,2024-10-01_23h36.53.055,VisualSearchTask,2024.1.5,None,2024-10-01 23h36.57.707411 +0530,
61,0,61,0,142.57106119999662,,142.5419185999781,5,142.57106119999662,142.57106119999662,0.011462599970400333,144.37561370013282,[0.266],[-0.336],[1],[0],[0],[1.822369100060314],['target'],579803,001,2024-10-01_23h36.53.055,VisualSearchTask,2024.1.5,None,2024-10-01 23h36.57.707411 +0530,
62,0,62,0,144.406583199976,,144.37801180011593,5,144.406583199976,144.406583199976,0.014410800067707896,146.06097280001268,[0.062],[-0.126],[1],[0],[0],[1.6685711001046002],[],579803,001,2024-10-01_23h36.53.055,VisualSearchTask,2024.1.5,None,2024-10-01 23h36.57.707411 +0530,
63,0,63,0,146.0917211000342,,146.06314789992757,5,146.0917211000342,146.0917211000342,0.010736800031736493,147.8294826000929,[-0.412],[0.18],[1],[0],[0],[1.7555868001654744],['target'],579803,001,2024-10-01_23h36.53.055,VisualSearchTask,2024.1.5,None,2024-10-01 23h36.57.707411 +0530,
64,0,64,0,147.87708360003307,,147.83170070010237,10,147.87708360003307,147.87708360003307,0.024271199945360422,149.86470849998295,[0.442],[-0.122],[1],[0],[0],[2.008745800005272],['target'],579803,001,2024-10-01_23h36.53.055,VisualSearchTask,2024.1.5,None,2024-10-01 23h36.57.707411 +0530,
65,0,65,0,149.89587499992922,,149.8669130001217,5,149.89587499992922,149.89587499992922,0.013771699974313378,151.56708990014158,[-0.146],[0.238],[1],[0],[0],[1.6863309000618756],['target'],579803,001,2024-10-01_23h36.53.055,VisualSearchTask,2024.1.5,None,2024-10-01 23h36.57.707411 +0530,
66,0,66,0,151.61453599995002,,151.56924460013397,10,151.61453599995002,151.61453599995002,0.024420300032943487,153.21831120015122,[0.468],[0.174],[1],[0],[0],[1.6246228001546115],['target'],579803,001,2024-10-01_23h36.53.055,VisualSearchTask,2024.1.5,None,2024-10-01 23h36.57.707411 +0530,
67,0,67,0,153.2491973999422,,153.2205906000454,5,153.2491973999422,153.2491973999422,0.010646899929270148,155.12109149992466,[-0.406],[-0.022],[1],[0],[0],[1.8897893000394106],['target'],579803,001,2024-10-01_23h36.53.055,VisualSearchTask,2024.1.5,None,2024-10-01 23h36.57.707411 +0530,
68,0,68,0,155.1518944001291,,155.12326110014692,5,155.1518944001291,155.1518944001291,0.011034899856895208,157.54018960008398,[0.47],[-0.192],[1],[0],[0],[2.4058232998941094],['target'],579803,001,2024-10-01_23h36.53.055,VisualSearchTask,2024.1.5,None,2024-10-01 23h36.57.707411 +0530,
69,0,69,0,157.5709049999714,,157.5423856000416,5,157.5709049999714,157.5709049999714,0.011027500033378601,159.20884889992885,[0.162],[0.162],[1],[0],[0],[1.655415500048548],['target'],579803,001,2024-10-01_23h36.53.055,VisualSearchTask,2024.1.5,None,2024-10-01 23h36.57.707411 +0530,
70,0,70,0,159.239393300144,,159.2110498000402,5,159.239393300144,159.239393300144,0.011080099968239665,161.5611399000045,[-0.382],[-0.1],[1],[0],[0],[2.338986599817872],['target'],579803,001,2024-10-01_23h36.53.055,VisualSearchTask,2024.1.5,None,2024-10-01 23h36.57.707411 +0530,
71,0,71,0,161.59151170006953,,161.56535809999332,5,161.59151170006953,161.59151170006953,0.01724419998936355,163.8976718999911,[0.248],[0.206],[1],[0],[0],[2.3156491999980062],[],579803,001,2024-10-01_23h36.53.055,VisualSearchTask,2024.1.5,None,2024-10-01 23h36.57.707411 +0530,
72,0,72,0,163.92781969998032,,163.9000771001447,5,163.92781969998032,163.92781969998032,0.01568130007945001,166.11597310006618,[0.262],[-0.418],[1],[0],[0],[2.200213700067252],['target'],579803,001,2024-10-01_23h36.53.055,VisualSearchTask,2024.1.5,None,2024-10-01 23h36.57.707411 +0530,
73,0,73,0,166.17987859994173,,166.1205907999538,10,166.17987859994173,166.17987859994173,0.032403600169345737,168.70236500003375,[-0.438],[0.394],[1],[0],[0],[2.5498587999027222],[],579803,001,2024-10-01_23h36.53.055,VisualSearchTask,2024.1.5,None,2024-10-01 23h36.57.707411 +0530,
74,0,74,0,168.75000020000152,,168.70468030008487,10,168.75000020000152,168.75000020000152,0.022403100039809942,170.7881187000312,[-0.116],[-0.08],[1],[0],[0],[2.060778599930927],['target'],579803,001,2024-10-01_23h36.53.055,VisualSearchTask,2024.1.5,None,2024-10-01 23h36.57.707411 +0530,
75,0,75,0,170.83541940012947,,170.79029499995522,10,170.83541940012947,170.83541940012947,0.022609499981626868,172.43901040009223,[0.132],[-0.37],[1],[0],[0],[1.626101499889046],['target'],579803,001,2024-10-01_23h36.53.055,VisualSearchTask,2024.1.5,None,2024-10-01 23h36.57.707411 +0530,
76,0,76,0,172.4704982000403,,172.4411826999858,5,172.4704982000403,172.4704982000403,0.010923199821263552,173.94152839994058,[-0.108],[-0.256],[1],[0],[0],[1.489414099836722],['target'],579803,001,2024-10-01_23h36.53.055,VisualSearchTask,2024.1.5,None,2024-10-01 23h36.57.707411 +0530,
77,0,77,0,173.98931570001878,,173.94369230000302,10,173.98931570001878,173.98931570001878,0.02199409995228052,175.25938419997692,[-0.446],[-0.13],[1],[0],[0],[1.293719399953261],[],579803,001,2024-10-01_23h36.53.055,VisualSearchTask,2024.1.5,None,2024-10-01 23h36.57.707411 +0530,
78,0,78,0,175.30692280014046,,175.26160720014013,10,175.30692280014046,175.30692280014046,0.023414700059220195,177.3948775001336,[0.402],[-0.42],[1],[0],[0],[2.1099631001707166],['target'],579803,001,2024-10-01_23h36.53.055,VisualSearchTask,2024.1.5,None,2024-10-01 23h36.57.707411 +0530,
79,0,79,0,177.44255820009857,,177.39746599993668,10,177.44255820009857,177.44255820009857,0.03241999982856214,178.9138501000125,[0.126],[-0.076],[1],[0],[0],[1.4840689999982715],[],579803,001,2024-10-01_23h36.53.055,VisualSearchTask,2024.1.5,None,2024-10-01 23h36.57.707411 +0530,
80,0,80,0,178.94478689995594,,178.91602999996394,5,178.94478689995594,178.94478689995594,0.011005299864336848,180.71555380010977,[-0.176],[0.362],[1],[0],[0],[1.7885302999056876],['target'],579803,001,2024-10-01_23h36.53.055,VisualSearchTask,2024.1.5,None,2024-10-01 23h36.57.707411 +0530,
81,0,81,0,180.74664489994757,,180.7178001999855,5,180.74664489994757,180.74664489994757,0.013959599891677499,183.2018097001128,[-0.036],[-0.15],[1],[0],[0],[2.4699935000389814],['target'],579803,001,2024-10-01_23h36.53.055,VisualSearchTask,2024.1.5,None,2024-10-01 23h36.57.707411 +0530,
82,0,82,0,183.2325109001249,,183.20395230012946,5,183.2325109001249,183.2325109001249,0.010960499988868833,184.72050289995968,[-0.452],[0.308],[1],[0],[0],[1.5054764999076724],['target'],579803,001,2024-10-01_23h36.53.055,VisualSearchTask,2024.1.5,None,2024-10-01 23h36.57.707411 +0530,
83,0,83,0,184.7674778001383,,184.7227652000729,10,184.7674778001383,184.7674778001383,0.02130250004120171,188.07348070014268,[-0.216],[-0.484],[1],[0],[0],[3.3293361000251025],['target'],579803,001,2024-10-01_23h36.53.055,VisualSearchTask,2024.1.5,None,2024-10-01 23h36.57.707411 +0530,
84,0,84,0,188.10445610014722,,188.075693000108,5,188.10445610014722,188.10445610014722,0.013658200157806277,189.82590300007723,[0.354],[-0.318],[1],[0],[0],[1.7365610001143068],['target'],579803,001,2024-10-01_23h36.53.055,VisualSearchTask,2024.1.5,None,2024-10-01 23h36.57.707411 +0530,
85,0,85,0,189.87291239993647,,189.82810709998012,10,189.87291239993647,189.87291239993647,0.021275999955832958,191.47770019993186,[-0.204],[-0.284],[1],[0],[0],[1.6282369000837207],[],579803,001,2024-10-01_23h36.53.055,VisualSearchTask,2024.1.5,None,2024-10-01 23h36.57.707411 +0530,
86,0,86,0,191.5084286001511,,191.47990539995953,5,191.5084286001511,191.5084286001511,0.011363500030711293,192.9301875999663,[0.084],[-0.234],[1],[0],[0],[1.4388727000914514],['target'],579803,001,2024-10-01_23h36.53.055,VisualSearchTask,2024.1.5,None,2024-10-01 23h36.57.707411 +0530,
87,0,87,0,192.97659910004586,,192.93239270010963,10,192.97659910004586,192.97659910004586,0.024772000033408403,194.34745490015484,[0.356],[-0.122],[1],[0],[0],[1.3902505999431014],['target'],579803,001,2024-10-01_23h36.53.055,VisualSearchTask,2024.1.5,None,2024-10-01 23h36.57.707411 +0530,
88,0,88,0,194.39481350011192,,194.34963870001957,10,194.39481350011192,194.39481350011192,0.024406899930909276,195.63151849992573,[0.122],[-0.152],[1],[0],[0],[1.2575918999500573],['target'],579803,001,2024-10-01_23h36.53.055,VisualSearchTask,2024.1.5,None,2024-10-01 23h36.57.707411 +0530,
89,0,89,0,195.66269599995576,,195.6338824001141,5,195.66269599995576,195.66269599995576,0.010695100063458085,197.33405639999546,[0.06],[-0.454],[1],[0],[0],[1.6895359000191092],['target'],579803,001,2024-10-01_23h36.53.055,VisualSearchTask,2024.1.5,None,2024-10-01 23h36.57.707411 +0530,
90,0,90,0,197.38145039998926,,197.336200900143,10,197.38145039998926,197.38145039998926,0.02379940007813275,199.51946490001865,[-0.062],[0.326],[1],[0],[0],[2.159424399957061],['target'],579803,001,2024-10-01_23h36.53.055,VisualSearchTask,2024.1.5,None,2024-10-01 23h36.57.707411 +0530,
91,0,91,0,199.55054680001922,,199.52168760006316,5,199.55054680001922,199.55054680001922,0.01362060010433197,201.4053375001531,[-0.192],[-0.252],[1],[0],[0],[1.8700251001864672],['target'],579803,001,2024-10-01_23h36.53.055,VisualSearchTask,2024.1.5,None,2024-10-01 23h36.57.707411 +0530,
92,0,92,0,201.43605410004966,,201.40753610013053,5,201.43605410004966,201.43605410004966,0.01078170002438128,203.47399640013464,[-0.274],[-0.21],[1],[0],[0],[2.0555639998055995],['target'],579803,001,2024-10-01_23h36.53.055,VisualSearchTask,2024.1.5,None,2024-10-01 23h36.57.707411 +0530,
93,0,93,0,203.52106090006419,,203.47692480008118,10,203.52106090006419,203.52106090006419,0.03300910000689328,206.31001979997382,[0.188],[-0.254],[1],[0],[0],[2.800066899973899],['target'],579803,001,2024-10-01_23h36.53.055,VisualSearchTask,2024.1.5,None,2024-10-01 23h36.57.707411 +0530,
94,0,94,0,206.34142399998382,,206.31221499992535,5,206.34142399998382,206.34142399998382,0.01059479988180101,207.87851450010203,[-0.216],[-0.048],[1],[0],[0],[1.5557375000789762],['target'],579803,001,2024-10-01_23h36.53.055,VisualSearchTask,2024.1.5,None,2024-10-01 23h36.57.707411 +0530,
95,0,95,0,207.92657330003567,,207.8806831999682,10,207.92657330003567,207.92657330003567,0.022151599870994687,209.29641119996086,[-0.22],[-0.194],[1],[0],[0],[1.3935774001292884],['target'],579803,001,2024-10-01_23h36.53.055,VisualSearchTask,2024.1.5,None,2024-10-01 23h36.57.707411 +0530,
96,0,96,0,209.32826069998555,,209.2985539000947,5,209.32826069998555,209.32826069998555,0.013031800044700503,211.53259270009585,[0.352],[-0.002],[1],[0],[0],[2.2209606000687927],['target'],579803,001,2024-10-01_23h36.53.055,VisualSearchTask,2024.1.5,None,2024-10-01 23h36.57.707411 +0530,
97,0,97,0,211.57990640006028,,211.53606500010937,10,211.57990640006028,211.57990640006028,0.023482900112867355,214.01856809994206,[0.106],[-0.416],[1],[0],[0],[2.4589388000313193],['target'],579803,001,2024-10-01_23h36.53.055,VisualSearchTask,2024.1.5,None,2024-10-01 23h36.57.707411 +0530,
98,0,98,0,214.04983090003952,,214.02079070010222,5,214.04983090003952,214.04983090003952,0.010814599925652146,216.08868220006116,[0.156],[0.078],[1],[0],[0],[2.057096299948171],['target'],579803,001,2024-10-01_23h36.53.055,VisualSearchTask,2024.1.5,None,2024-10-01 23h36.57.707411 +0530,
99,0,99,0,216.11876430013217,,216.09172450006008,5,216.11876430013217,216.11876430013217,0.012030400102958083,217.75688170013018,[-0.198],[-0.198],[1],[0],[0],[1.653078000061214],[],579803,001,2024-10-01_23h36.53.055,VisualSearchTask,2024.1.5,None,2024-10-01 23h36.57.707411 +0530,
100,0,100,0,217.787432000041,,217.75904750009067,5,217.787432000041,217.787432000041,0.010725299827754498,219.75923520000651,[0.218],[0.1],[1],[0],[0],[1.9894393999129534],[],579803,001,2024-10-01_23h36.53.055,VisualSearchTask,2024.1.5,None,2024-10-01 23h36.57.707411 +0530,
101,0,101,0,219.8062571999617,,219.7614062000066,10,219.8062571999617,219.8062571999617,0.025433399947360158,221.1428767000325,[0.36],[0.228],[1],[0],[0],[1.3559542000293732],['target'],579803,001,2024-10-01_23h36.53.055,VisualSearchTask,2024.1.5,None,2024-10-01 23h36.57.707411 +0530,
102,0,102,0,221.19054000009783,,221.14508499996737,10,221.19054000009783,221.19054000009783,0.026162999914959073,222.31170920003206,[0.342],[0.31],[1],[0],[0],[1.1404071999713778],['target'],579803,001,2024-10-01_23h36.53.055,VisualSearchTask,2024.1.5,None,2024-10-01 23h36.57.707411 +0530,
103,0,103,0,222.35847280011512,,222.31390379997902,10,222.35847280011512,222.35847280011512,0.029719100100919604,223.57999700005166,[0.334],[0.312],[1],[0],[0],[1.236288000131026],['target'],579803,001,2024-10-01_23h36.53.055,VisualSearchTask,2024.1.5,None,2024-10-01 23h36.57.707411 +0530,
104,0,104,0,223.61047870013863,,223.58218639995903,5,223.61047870013863,223.61047870013863,0.010546699864789844,225.6315115999896,[0.318],[-0.15],[1],[0],[0],[2.038768099853769],['target'],579803,001,2024-10-01_23h36.53.055,VisualSearchTask,2024.1.5,None,2024-10-01 23h36.57.707411 +0530,
105,0,105,0,225.6624569001142,,225.63365640002303,5,225.6624569001142,225.6624569001142,0.012726099928840995,227.1669147000648,[0.058],[-0.216],[1],[0],[0],[1.5205268000718206],['target'],579803,001,2024-10-01_23h36.53.055,VisualSearchTask,2024.1.5,None,2024-10-01 23h36.57.707411 +0530,
106,0,106,0,227.21446570008993,,227.1690708999522,10,227.21446570008993,227.21446570008993,0.02143839979544282,229.25290650012903,[-0.064],[0.258],[1],[0],[0],[2.062321800040081],['target'],579803,001,2024-10-01_23h36.53.055,VisualSearchTask,2024.1.5,None,2024-10-01 23h36.57.707411 +0530,
107,0,107,0,229.29995779995807,,229.2551126999315,10,229.29995779995807,229.29995779995807,0.025921900058165193,231.47064479999244,[-0.058],[-0.35],[1],[0],[0],[2.1897336998954415],['target'],579803,001,2024-10-01_23h36.53.055,VisualSearchTask,2024.1.5,None,2024-10-01 23h36.57.707411 +0530,
108,0,108,0,231.50208669994026,,231.47286540013738,5,231.50208669994026,231.50208669994026,0.01495509990490973,233.20678090001456,[-0.274],[-0.456],[1],[0],[0],[1.7189374000299722],['target'],579803,001,2024-10-01_23h36.53.055,VisualSearchTask,2024.1.5,None,2024-10-01 23h36.57.707411 +0530,
109,0,109,0,233.23768120002933,,233.20896790013649,5,233.23768120002933,233.23768120002933,0.011033899849280715,235.0424478999339,[-0.418],[-0.088],[1],[0],[0],[1.8223871998488903],['target'],579803,001,2024-10-01_23h36.53.055,VisualSearchTask,2024.1.5,None,2024-10-01 23h36.57.707411 +0530,
110,0,110,0,235.073074700078,,235.0446206999477,5,235.073074700078,235.073074700078,0.011073599802330136,236.74432649998926,[0.168],[-0.388],[1],[0],[0],[1.6885367999784648],[],579803,001,2024-10-01_23h36.53.055,VisualSearchTask,2024.1.5,None,2024-10-01 23h36.57.707411 +0530,
111,0,111,0,236.7915287001524,,236.74671269999817,10,236.7915287001524,236.7915287001524,0.021910599898546934,238.51188870007172,[-0.404],[0.13],[1],[0],[0],[1.7432010998018086],['target'],579803,001,2024-10-01_23h36.53.055,VisualSearchTask,2024.1.5,None,2024-10-01 23h36.57.707411 +0530,
112,0,112,0,238.54376480006613,,238.51407380006276,5,238.54376480006613,238.54376480006613,0.010473399888724089,240.33166299993172,[-0.044],[0.44],[1],[0],[0],[1.80700089992024],['target'],579803,001,2024-10-01_23h36.53.055,VisualSearchTask,2024.1.5,None,2024-10-01 23h36.57.707411 +0530,
113,0,113,0,240.36198409995995,,240.33392730006017,5,240.36198409995995,240.36198409995995,0.016173599986359477,241.9501350999344,[0.02],[0.28],[1],[0],[0],[1.6000429999548942],['target'],579803,001,2024-10-01_23h36.53.055,VisualSearchTask,2024.1.5,None,2024-10-01 23h36.57.707411 +0530,
114,0,114,0,241.99732180009596,,241.95237249997444,10,241.99732180009596,241.99732180009596,0.021445199847221375,243.33468069997616,[0.114],[0.188],[1],[0],[0],[1.3608176000416279],['target'],579803,001,2024-10-01_23h36.53.055,VisualSearchTask,2024.1.5,None,2024-10-01 23h36.57.707411 +0530,
115,0,115,0,243.3821014999412,,243.33682450000197,10,243.3821014999412,243.3821014999412,0.021347399801015854,245.45394239993766,[0.426],[0.036],[1],[0],[0],[2.095844800118357],['target'],579803,001,2024-10-01_23h36.53.055,VisualSearchTask,2024.1.5,None,2024-10-01 23h36.57.707411 +0530,
116,0,116,0,245.50067019998096,,245.4564678000752,10,245.50067019998096,245.50067019998096,0.02988389995880425,247.4397573999595,[0.486],[-0.276],[1],[0],[0],[1.9534002000000328],['target'],579803,001,2024-10-01_23h36.53.055,VisualSearchTask,2024.1.5,None,2024-10-01 23h36.57.707411 +0530,
117,0,117,0,247.47005260013975,,247.44192490004934,5,247.47005260013975,247.47005260013975,0.011105200042948127,248.85857659997419,[-0.21],[0.062],[1],[0],[0],[1.4055898000951856],['target'],579803,001,2024-10-01_23h36.53.055,VisualSearchTask,2024.1.5,None,2024-10-01 23h36.57.707411 +0530,
118,0,118,0,248.90463829995133,,248.86105860001408,10,248.90463829995133,248.90463829995133,0.030486099887639284,251.04298070003279,[-0.298],[-0.02],[1],[0],[0],[2.151386999990791],[],579803,001,2024-10-01_23h36.53.055,VisualSearchTask,2024.1.5,None,2024-10-01 23h36.57.707411 +0530,
119,0,119,0,251.07416040007956,,251.04517449997365,5,251.07416040007956,251.07416040007956,0.01091640000231564,252.47779799997807,[-0.26],[0.07],[1],[0],[0],[1.4216774001251906],['target'],579803,001,2024-10-01_23h36.53.055,VisualSearchTask,2024.1.5,None,2024-10-01 23h36.57.707411 +0530,
120,0,120,0,252.50881130015478,,252.4799878001213,5,252.50881130015478,252.50881130015478,0.010630400152876973,254.34659540001303,[-0.044],[0.452],[1],[0],[0],[1.8558695998508483],['target'],579803,001,2024-10-01_23h36.53.055,VisualSearchTask,2024.1.5,None,2024-10-01 23h36.57.707411 +0530,
121,0,121,0,254.3944355000276,,254.3487931001,10,254.3944355000276,254.3944355000276,0.024468000046908855,256.7489740001038,[0.27],[-0.442],[1],[0],[0],[2.3756375000812113],['target'],579803,001,2024-10-01_23h36.53.055,VisualSearchTask,2024.1.5,None,2024-10-01 23h36.57.707411 +0530,
122,0,122,0,256.77973429998383,,256.7512058999855,5,256.77973429998383,256.77973429998383,0.01548379985615611,258.76908660004847,[-0.134],[0.048],[1],[0],[0],[2.0023906999267638],['target'],579803,001,2024-10-01_23h36.53.055,VisualSearchTask,2024.1.5,None,2024-10-01 23h36.57.707411 +0530,
123,0,123,0,258.79926320002414,,258.7713840000797,5,258.79926320002414,258.79926320002414,0.01182930008508265,260.7374645001255,[-0.456],[-0.386],[1],[0],[0],[1.9541393998079002],['target'],579803,001,2024-10-01_23h36.53.055,VisualSearchTask,2024.1.5,None,2024-10-01 23h36.57.707411 +0530,
124,0,124,0,260.78476439998485,,260.73966850014403,10,260.78476439998485,260.78476439998485,0.023256799904629588,262.1725337000098,[-0.046],[-0.286],[1],[0],[0],[1.4095340000931174],['target'],579803,001,2024-10-01_23h36.53.055,VisualSearchTask,2024.1.5,None,2024-10-01 23h36.57.707411 +0530,
125,0,125,0,262.20307229994796,,262.17476360010915,5,262.20307229994796,262.20307229994796,0.0108880999032408,264.2744783000089,[-0.332],[0.232],[1],[0],[0],[2.08879780001007],['target'],579803,001,2024-10-01_23h36.53.055,VisualSearchTask,2024.1.5,None,2024-10-01 23h36.57.707411 +0530,
126,0,126,0,264.3053657000419,,264.27667980012484,5,264.3053657000419,264.3053657000419,0.015208299970254302,265.75933549995534,[-0.452],[0.14],[1],[0],[0],[1.4674716999288648],['target'],579803,001,2024-10-01_23h36.53.055,VisualSearchTask,2024.1.5,None,2024-10-01 23h36.57.707411 +0530,
127,0,127,0,265.8066773000173,,265.76148660015315,10,265.8066773000173,265.8066773000173,0.022192700067535043,267.57827860000543,[0.236],[0.42],[1],[0],[0],[1.7945868000388145],['target'],579803,001,2024-10-01_23h36.53.055,VisualSearchTask,2024.1.5,None,2024-10-01 23h36.57.707411 +0530,
128,0,128,0,267.62541830004193,,267.5804968001321,10,267.62541830004193,267.62541830004193,0.021978599950671196,269.8133298000321,[-0.096],[-0.428],[1],[0],[0],[2.2108418999705464],['target'],579803,001,2024-10-01_23h36.53.055,VisualSearchTask,2024.1.5,None,2024-10-01 23h36.57.707411 +0530,
129,0,129,0,269.8611715999432,,269.8154841000214,10,269.8611715999432,269.8611715999432,0.022682700073346496,271.2649304000661,[0.124],[-0.302],[1],[0],[0],[1.4267351999878883],[],579803,001,2024-10-01_23h36.53.055,VisualSearchTask,2024.1.5,None,2024-10-01 23h36.57.707411 +0530,
130,0,130,0,271.31282250001095,,271.26718860003166,10,271.31282250001095,271.31282250001095,0.025913799880072474,272.90115920011885,[0.41],[-0.436],[1],[0],[0],[1.6079275999218225],[],579803,001,2024-10-01_23h36.53.055,VisualSearchTask,2024.1.5,None,2024-10-01 23h36.57.707411 +0530,
131,0,131,0,272.93135099997744,,272.903371399967,5,272.93135099997744,272.93135099997744,0.011853800155222416,274.3520397001412,[-0.438],[0.224],[1],[0],[0],[1.4367408000398427],[],579803,001,2024-10-01_23h36.53.055,VisualSearchTask,2024.1.5,None,2024-10-01 23h36.57.707411 +0530,
132,0,132,0,274.3995245001279,,274.3541842000559,10,274.3995245001279,274.3995245001279,0.021758400136604905,276.30400390014984,[0.344],[0.086],[1],[0],[0],[1.9280526998918504],['target'],579803,001,2024-10-01_23h36.53.055,VisualSearchTask,2024.1.5,None,2024-10-01 23h36.57.707411 +0530,
133,0,133,0,276.3346613999456,,276.306274499977,5,276.3346613999456,276.3346613999456,0.014040099922567606,278.2558283000253,[0.054],[-0.308],[1],[0],[0],[1.9354326999746263],[],579803,001,2024-10-01_23h36.53.055,VisualSearchTask,2024.1.5,None,2024-10-01 23h36.57.707411 +0530,
134,0,134,0,278.28739019995555,,278.258077400038,5,278.28739019995555,278.28739019995555,0.01085890014655888,279.9424725000281,[0.282],[-0.452],[1],[0],[0],[1.6735363998450339],['target'],579803,001,2024-10-01_23h36.53.055,VisualSearchTask,2024.1.5,None,2024-10-01 23h36.57.707411 +0530,
135,0,135,0,279.97256450005807,,279.94464670005254,5,279.97256450005807,279.97256450005807,0.013229399919509888,281.4269803999923,[-0.184],[-0.036],[1],[0],[0],[1.4691089000552893],[],579803,001,2024-10-01_23h36.53.055,VisualSearchTask,2024.1.5,None,2024-10-01 23h36.57.707411 +0530,
136,0,136,0,281.4572686001193,,281.4290960000362,5,281.4572686001193,281.4572686001193,0.010578799992799759,282.7117805001326,[-0.476],[0.152],[1],[0],[0],[1.2720406998414546],[],579803,001,2024-10-01_23h36.53.055,VisualSearchTask,2024.1.5,None,2024-10-01 23h36.57.707411 +0530,
137,0,137,0,282.7589428999927,,282.71400750009343,10,282.7589428999927,282.7589428999927,0.02230690000578761,285.9656754001044,[-0.022],[-0.016],[1],[0],[0],[3.229364400031045],['target'],579803,001,2024-10-01_23h36.53.055,VisualSearchTask,2024.1.5,None,2024-10-01 23h36.57.707411 +0530,
138,0,138,0,286.0125368000008,,285.96787540009245,10,286.0125368000008,286.0125368000008,0.024212300078943372,287.75085680000484,[0.066],[0.204],[1],[0],[0],[1.7586280000396073],['target'],579803,001,2024-10-01_23h36.53.055,VisualSearchTask,2024.1.5,None,2024-10-01 23h36.57.707411 +0530,
139,0,139,0,287.78127239993773,,287.7530207999516,5,287.78127239993773,287.78127239993773,0.011989299906417727,289.3023288999684,[0.23],[0.364],[1],[0],[0],[1.5372669000644237],['target'],579803,001,2024-10-01_23h36.53.055,VisualSearchTask,2024.1.5,None,2024-10-01 23h36.57.707411 +0530,
140,0,140,0,289.3494568001479,,289.30445950012654,10,289.3494568001479,289.3494568001479,0.025155199924483895,291.60391209996305,[-0.492],[0.024],[1],[0],[0],[2.2742218000348657],['target'],579803,001,2024-10-01_23h36.53.055,VisualSearchTask,2024.1.5,None,2024-10-01 23h36.57.707411 +0530,
141,0,141,0,291.63556840014644,,291.6061120000668,5,291.63556840014644,291.63556840014644,0.010712799848988652,293.5404873001389,[0.44],[-0.01],[1],[0],[0],[1.9236494000069797],['target'],579803,001,2024-10-01_23h36.53.055,VisualSearchTask,2024.1.5,None,2024-10-01 23h36.57.707411 +0530,
142,0,142,0,293.57035759999417,,293.54266949999146,5,293.57035759999417,293.57035759999417,0.011112499982118607,295.17518889997154,[-0.394],[0.188],[1],[0],[0],[1.6213724999688566],['target'],579803,001,2024-10-01_23h36.53.055,VisualSearchTask,2024.1.5,None,2024-10-01 23h36.57.707411 +0530,
143,0,143,0,295.2223980000708,,295.17734719999135,10,295.2223980000708,295.2223980000708,0.024075200082734227,296.40996520011686,[-0.348],[0.106],[1],[0],[0],[1.2085473001934588],['target'],579803,001,2024-10-01_23h36.53.055,VisualSearchTask,2024.1.5,None,2024-10-01 23h36.57.707411 +0530,
144,0,144,0,296.44007190014236,,296.4121431000531,5,296.44007190014236,296.44007190014236,0.011444900184869766,297.8781612000894,[-0.128],[-0.12],[1],[0],[0],[1.4542696999851614],[],579803,001,2024-10-01_23h36.53.055,VisualSearchTask,2024.1.5,None,2024-10-01 23h36.57.707411 +0530,
145,0,145,0,297.90904249995947,,297.8805897999555,5,297.90904249995947,297.90904249995947,0.010265100048854947,299.2624564000871,[-0.228],[0.114],[1],[0],[0],[1.371539199957624],[],579803,001,2024-10-01_23h36.53.055,VisualSearchTask,2024.1.5,None,2024-10-01 23h36.57.707411 +0530,
146,0,146,0,299.3104121000506,,299.2646401999518,10,299.3104121000506,299.3104121000506,0.02212810004130006,301.0982006001286,[0.326],[0.396],[1],[0],[0],[1.8114370999392122],['target'],579803,001,2024-10-01_23h36.53.055,VisualSearchTask,2024.1.5,None,2024-10-01 23h36.57.707411 +0530,
147,0,147,0,301.1291487000417,,301.100403000135,5,301.1291487000417,301.1291487000417,0.010958099970594049,302.9502020000946,[-0.318],[0.372],[1],[0],[0],[1.8387787998653948],['target'],579803,001,2024-10-01_23h36.53.055,VisualSearchTask,2024.1.5,None,2024-10-01 23h36.57.707411 +0530,
148,0,148,0,302.99773530010134,,302.95240089995787,10,302.99773530010134,302.99773530010134,0.021451599895954132,304.88597950013354,[0.06],[-0.24],[1],[0],[0],[1.9121027998626232],['target'],579803,001,2024-10-01_23h36.53.055,VisualSearchTask,2024.1.5,None,2024-10-01 23h36.57.707411 +0530,
149,0,149,0,304.9330593999475,,304.8881429999601,10,304.9330593999475,304.9330593999475,0.021679600002244115,306.3710545001086,[0.21],[0.076],[1],[0],[0],[1.4611204001121223],[],579803,001,2024-10-01_23h36.53.055,VisualSearchTask,2024.1.5,None,2024-10-01 23h36.57.707411 +0530,
150,0,150,0,306.41838079993613,,306.37328690011054,10,306.41838079993613,306.41838079993613,0.02091689989902079,307.9882028999273,[-0.294],[0.208],[1],[0],[0],[1.5940809999592602],['target'],579803,001,2024-10-01_23h36.53.055,VisualSearchTask,2024.1.5,None,2024-10-01 23h36.57.707411 +0530,
151,0,151,0,308.0193833000958,,307.9903702000156,10,308.0193833000958,308.0193833000958,0.020567300030961633,310.14060309994966,[0.374],[-0.364],[1],[0],[0],[2.129735699854791],[],579803,001,2024-10-01_23h36.53.055,VisualSearchTask,2024.1.5,None,2024-10-01 23h36.57.707411 +0530,
152,0,152,0,310.17197320004925,,310.14279139996506,5,310.17197320004925,310.17197320004925,0.01134330010972917,312.2270319000818,[0.136],[0.458],[1],[0],[0],[2.072861900087446],['target'],579803,001,2024-10-01_23h36.53.055,VisualSearchTask,2024.1.5,None,2024-10-01 23h36.57.707411 +0530,
153,0,153,0,312.25799449998885,,312.2291854999494,5,312.25799449998885,312.25799449998885,0.010728999972343445,313.9123410000466,[-0.496],[0.314],[1],[0],[0],[1.6724089998751879],[],579803,001,2024-10-01_23h36.53.055,VisualSearchTask,2024.1.5,None,2024-10-01 23h36.57.707411 +0530,
154,0,154,0,313.94315099995583,,313.91453840001486,5,313.94315099995583,313.94315099995583,0.010904500028118491,316.04807349992916,[-0.13],[-0.162],[1],[0],[0],[2.1226124002132565],['target'],579803,001,2024-10-01_23h36.53.055,VisualSearchTask,2024.1.5,None,2024-10-01 23h36.57.707411 +0530,
155,0,155,0,316.09545619995333,,316.05031680013053,10,316.09545619995333,316.09545619995333,0.025204999838024378,318.06637280015275,[-0.4],[0.46],[1],[0],[0],[1.990922800032422],['target'],579803,001,2024-10-01_23h36.53.055,VisualSearchTask,2024.1.5,None,2024-10-01 23h36.57.707411 +0530,
156,0,156,0,318.1142665001098,,318.07075820001774,10,318.1142665001098,318.1142665001098,0.031387099996209145,320.2366323999595,[0.25],[-0.374],[1],[0],[0],[2.135047499788925],['target'],579803,001,2024-10-01_23h36.53.055,VisualSearchTask,2024.1.5,None,2024-10-01 23h36.57.707411 +0530,
157,0,157,0,320.2664072001353,,320.2387918001041,5,320.2664072001353,320.2664072001353,0.01283499994315207,322.00503140012734,[0.154],[0.008],[1],[0],[0],[1.7533395998179913],[],579803,001,2024-10-01_23h36.53.055,VisualSearchTask,2024.1.5,None,2024-10-01 23h36.57.707411 +0530,
158,0,158,0,322.05200910009444,,322.0072238999419,10,322.05200910009444,322.05200910009444,0.021379699930548668,323.7398701000493,[0.352],[0.346],[1],[0],[0],[1.7111935999710113],[],579803,001,2024-10-01_23h36.53.055,VisualSearchTask,2024.1.5,None,2024-10-01 23h36.57.707411 +0530,
159,0,159,0,323.7871086001396,,323.74205020000227,10,323.7871086001396,323.7871086001396,0.02857699990272522,325.29178049997427,[0.356],[0.18],[1],[0],[0],[1.521067599998787],['target'],579803,001,2024-10-01_23h36.53.055,VisualSearchTask,2024.1.5,None,2024-10-01 23h36.57.707411 +0530,
160,0,160,0,325.3223794000223,,325.29604470008053,5,325.3223794000223,325.3223794000223,0.014116500038653612,326.9936708000023,[-0.152],[0.116],[1],[0],[0],[1.6855438998900354],['target'],579803,001,2024-10-01_23h36.53.055,VisualSearchTask,2024.1.5,None,2024-10-01 23h36.57.707411 +0530,
161,0,161,0,327.04082560003735,,326.99593969993293,10,327.04082560003735,327.04082560003735,0.022209399845451117,329.4295662001241,[-0.476],[-0.172],[1],[0],[0],[2.4114069000352174],['target'],579803,001,2024-10-01_23h36.53.055,VisualSearchTask,2024.1.5,None,2024-10-01 23h36.57.707411 +0530,
162,0,162,0,329.4769623000175,,329.4318787001539,10,329.4769623000175,329.4769623000175,0.023860800080001354,332.1327013000846,[-0.38],[0.372],[1],[0],[0],[2.6770821001846343],['target'],579803,001,2024-10-01_23h36.53.055,VisualSearchTask,2024.1.5,None,2024-10-01 23h36.57.707411 +0530,
163,0,163,0,332.16305390000343,,332.134924300015,5,332.16305390000343,332.16305390000343,0.010808500228449702,333.8175548000727,[-0.048],[0.08],[1],[0],[0],[1.6717870000284165],['target'],579803,001,2024-10-01_23h36.53.055,VisualSearchTask,2024.1.5,None,2024-10-01 23h36.57.707411 +0530,
164,0,164,0,333.8480017001275,,333.8196952000726,5,333.8480017001275,333.8480017001275,0.01326810009777546,335.2021779001225,[-0.018],[0.09],[1],[0],[0],[1.3691374000627548],['target'],579803,001,2024-10-01_23h36.53.055,VisualSearchTask,2024.1.5,None,2024-10-01 23h36.57.707411 +0530,
165,0,165,0,335.25002910010517,,335.2043499001302,10,335.25002910010517,335.25002910010517,0.021244199946522713,336.88728619995527,[-0.202],[0.274],[1],[0],[0],[1.6616674000397325],['target'],579803,001,2024-10-01_23h36.53.055,VisualSearchTask,2024.1.5,None,2024-10-01 23h36.57.707411 +0530,
166,0,166,0,336.9184771999717,,336.8894565999508,5,336.9184771999717,336.9184771999717,0.013499800115823746,338.5739370000083,[-0.248],[0.102],[1],[0],[0],[1.6709463999141008],['target'],579803,001,2024-10-01_23h36.53.055,VisualSearchTask,2024.1.5,None,2024-10-01 23h36.57.707411 +0530,
167,0,167,0,338.6037465999834,,338.57628559996374,5,338.6037465999834,338.6037465999834,0.01125249988399446,340.20790409995243,[0.386],[0.144],[1],[0],[0],[1.6203885001596063],['target'],579803,001,2024-10-01_23h36.53.055,VisualSearchTask,2024.1.5,None,2024-10-01 23h36.57.707411 +0530,
168,0,168,0,340.25552220013924,,340.2102682001423,10,340.25552220013924,340.25552220013924,0.02172790002077818,341.67607029993087,[0.276],[0.43],[1],[0],[0],[1.4439316999632865],['target'],579803,001,2024-10-01_23h36.53.055,VisualSearchTask,2024.1.5,None,2024-10-01 23h36.57.707411 +0530,
169,0,169,0,341.72388119995594,,341.67822040012106,10,341.72388119995594,341.72388119995594,0.021901600062847137,345.29681230010465,[0.024],[0.052],[1],[0],[0],[3.5966888999100775],['target'],579803,001,2024-10-01_23h36.53.055,VisualSearchTask,2024.1.5,None,2024-10-01 23h36.57.707411 +0530,
170,0,170,0,345.34433820005506,,345.2989761000499,10,345.34433820005506,345.34433820005506,0.02021980006247759,347.3326542000286,[0.352],[-0.172],[1],[0],[0],[2.01345119997859],[],579803,001,2024-10-01_23h36.53.055,VisualSearchTask,2024.1.5,None,2024-10-01 23h36.57.707411 +0530,
171,0,171,0,347.3800103000831,,347.33481870009564,10,347.3800103000831,347.3800103000831,0.02455869992263615,348.76750810001977,[0.192],[-0.226],[1],[0],[0],[1.4080093998927623],['target'],579803,001,2024-10-01_23h36.53.055,VisualSearchTask,2024.1.5,None,2024-10-01 23h36.57.707411 +0530,
172,0,172,0,348.8150013999548,,348.7697075000033,10,348.8150013999548,348.8150013999548,0.024426199961453676,350.38616700004786,[0.1],[-0.324],[1],[0],[0],[1.592113000107929],['target'],579803,001,2024-10-01_23h36.53.055,VisualSearchTask,2024.1.5,None,2024-10-01 23h36.57.707411 +0530,
173,0,173,0,350.4162045000121,,350.3884902000427,5,350.4162045000121,350.4162045000121,0.014895800035446882,351.97181660006754,[0.14],[0.072],[1],[0],[0],[1.5684847000520676],['target'],579803,001,2024-10-01_23h36.53.055,VisualSearchTask,2024.1.5,None,2024-10-01 23h36.57.707411 +0530,
174,0,174,0,352.0013534000609,,351.97444160003215,5,352.0013534000609,352.0013534000609,0.015319699887186289,353.3397093000822,[0.292],[0.216],[1],[0],[0],[1.3500115000642836],['target'],579803,001,2024-10-01_23h36.53.055,VisualSearchTask,2024.1.5,None,2024-10-01 23h36.57.707411 +0530,
175,0,175,0,353.3867693999782,,353.3418342000805,10,353.3867693999782,353.3867693999782,0.024268000153824687,355.95865879999474,[-0.444],[-0.4],[1],[0],[0],[2.5925314999185503],['target'],579803,001,2024-10-01_23h36.53.055,VisualSearchTask,2024.1.5,None,2024-10-01 23h36.57.707411 +0530,
176,0,176,0,356.0061781001277,,355.96087990002707,10,356.0061781001277,356.0061781001277,0.021514999913051724,357.9273155000992,[0.38],[0.344],[1],[0],[0],[1.944997499929741],['target'],579803,001,2024-10-01_23h36.53.055,VisualSearchTask,2024.1.5,None,2024-10-01 23h36.57.707411 +0530,
177,0,177,0,357.9582641001325,,357.92961099999957,5,357.9582641001325,357.9582641001325,0.012575800064951181,360.99707729998045,[-0.308],[-0.276],[1],[0],[0],[3.054874900029972],['target'],579803,001,2024-10-01_23h36.53.055,VisualSearchTask,2024.1.5,None,2024-10-01 23h36.57.707411 +0530,
178,0,178,0,361.044816599926,,360.9994526000228,10,361.044816599926,361.044816599926,0.028826000168919563,362.61551439994946,[-0.068],[0.14],[1],[0],[0],[1.587176000000909],['target'],579803,001,2024-10-01_23h36.53.055,VisualSearchTask,2024.1.5,None,2024-10-01 23h36.57.707411 +0530,
179,0,179,0,362.6469080999959,,362.6177228000015,5,362.6469080999959,362.6469080999959,0.01032880018465221,364.4015069999732,[-0.048],[-0.26],[1],[0],[0],[1.7735792000312358],['target'],579803,001,2024-10-01_23h36.53.055,VisualSearchTask,2024.1.5,None,2024-10-01 23h36.57.707411 +0530,
180,0,180,0,364.4317755999509,,364.40376020013355,5,364.4317755999509,364.4317755999509,0.0146828000433743,365.9867994999513,[0.198],[0.004],[1],[0],[0],[1.56848210003227],['target'],579803,001,2024-10-01_23h36.53.055,VisualSearchTask,2024.1.5,None,2024-10-01 23h36.57.707411 +0530,
181,0,181,0,366.01727740000933,,365.98898080014624,5,366.01727740000933,366.01727740000933,0.014486399944871664,367.5878900999669,[0.128],[-0.136],[1],[0],[0],[1.5843974999152124],[],579803,001,2024-10-01_23h36.53.055,VisualSearchTask,2024.1.5,None,2024-10-01 23h36.57.707411 +0530,
182,0,182,0,367.61893510003574,,367.5900294999592,5,367.61893510003574,367.61893510003574,0.01145999995060265,369.17299620015547,[0.172],[0.268],[1],[0],[0],[1.5714694999624044],['target'],579803,001,2024-10-01_23h36.53.055,VisualSearchTask,2024.1.5,None,2024-10-01 23h36.57.707411 +0530,
183,0,183,0,369.203938000137,,369.17512909998186,5,369.203938000137,369.203938000137,0.010787799954414368,370.7586519999895,[0.138],[0.04],[1],[0],[0],[1.5726489000953734],['target'],579803,001,2024-10-01_23h36.53.055,VisualSearchTask,2024.1.5,None,2024-10-01 23h36.57.707411 +0530,
184,0,184,0,370.80586800002493,,370.76099240011536,10,370.80586800002493,370.80586800002493,0.021178000140935183,373.01032590004615,[-0.484],[-0.03],[1],[0],[0],[2.228085800074041],[],579803,001,2024-10-01_23h36.53.055,VisualSearchTask,2024.1.5,None,2024-10-01 23h36.57.707411 +0530,
185,0,185,0,373.04167890013196,,373.01265390007757,5,373.04167890013196,373.04167890013196,0.010968700051307678,375.2631695000455,[-0.028],[-0.274],[1],[0],[0],[2.2394574999343604],['target'],579803,001,2024-10-01_23h36.53.055,VisualSearchTask,2024.1.5,None,2024-10-01 23h36.57.707411 +0530,
186,0,186,0,375.31061640009284,,375.26530999992974,10,375.31061640009284,375.31061640009284,0.021859500091522932,377.51610499992967,[0.1],[-0.482],[1],[0],[0],[2.2289332000073045],['target'],579803,001,2024-10-01_23h36.53.055,VisualSearchTask,2024.1.5,None,2024-10-01 23h36.57.707411 +0530,
187,0,187,0,377.54666120000184,,377.51827190001495,5,377.54666120000184,377.54666120000184,0.01094030006788671,379.70179089996964,[0.278],[0.436],[1],[0],[0],[2.172581800026819],['target'],579803,001,2024-10-01_23h36.53.055,VisualSearchTask,2024.1.5,None,2024-10-01 23h36.57.707411 +0530,
188,0,188,0,379.7322209000122,,379.7040160000324,5,379.7322209000122,379.7322209000122,0.010909799952059984,381.78729170002043,[-0.12],[-0.276],[1],[0],[0],[2.0723655000329018],['target'],579803,001,2024-10-01_23h36.53.055,VisualSearchTask,2024.1.5,None,2024-10-01 23h36.57.707411 +0530,
189,0,189,0,381.83453120011836,,381.78941840003245,10,381.83453120011836,381.83453120011836,0.02156040002591908,383.5221675999928,[0.084],[-0.132],[1],[0],[0],[1.7111750999465585],['target'],579803,001,2024-10-01_23h36.53.055,VisualSearchTask,2024.1.5,None,2024-10-01 23h36.57.707411 +0530,
190,0,190,0,383.5533531999681,,383.5244197000284,5,383.5533531999681,383.5533531999681,0.010890700155869126,386.693050700007,[-0.092],[-0.178],[1],[0],[0],[3.1576549999881536],['target'],579803,001,2024-10-01_23h36.53.055,VisualSearchTask,2024.1.5,None,2024-10-01 23h36.57.707411 +0530,
191,0,191,0,386.7232788000256,,386.69521480007097,5,386.7232788000256,386.7232788000256,0.010955199832096696,388.29389049997553,[-0.186],[0.196],[1],[0],[0],[1.5878337000031024],['target'],579803,001,2024-10-01_23h36.53.055,VisualSearchTask,2024.1.5,None,2024-10-01 23h36.57.707411 +0530,
192,0,192,0,388.32433580001816,,388.2992933001369,5,388.32433580001816,388.32433580001816,0.01466520014218986,389.963084399933,[-0.194],[-0.19],[1],[0],[0],[1.649902299977839],['target'],579803,001,2024-10-01_23h36.53.055,VisualSearchTask,2024.1.5,None,2024-10-01 23h36.57.707411 +0530,
193,0,193,0,390.01028269995004,,389.96524440008216,10,390.01028269995004,390.01028269995004,0.021740900119766593,391.81512459996156,[0.046],[0.068],[1],[0],[0],[1.8280867000576109],[],579803,001,2024-10-01_23h36.53.055,VisualSearchTask,2024.1.5,None,2024-10-01 23h36.57.707411 +0530,
194,0,194,0,391.8457826001104,,391.8173541999422,5,391.8457826001104,391.8457826001104,0.013834699988365173,393.78445790009573,[0.432],[0.03],[1],[0],[0],[1.953029999975115],['target'],579803,001,2024-10-01_23h36.53.055,VisualSearchTask,2024.1.5,None,2024-10-01 23h36.57.707411 +0530,
195,0,195,0,393.81465820013545,,393.78662639996037,5,393.81465820013545,393.81465820013545,0.01072410005144775,395.80260880012065,[-0.436],[-0.424],[1],[0],[0],[2.005244799889624],['target'],579803,001,2024-10-01_23h36.53.055,VisualSearchTask,2024.1.5,None,2024-10-01 23h36.57.707411 +0530,
196,0,196,0,395.83342460007407,,395.8055394999683,5,395.83342460007407,395.83342460007407,0.011030200170353055,397.8214776001405,[-0.404],[0.42],[1],[0],[0],[2.0049136001616716],['target'],579803,001,2024-10-01_23h36.53.055,VisualSearchTask,2024.1.5,None,2024-10-01 23h36.57.707411 +0530,
197,0,197,0,397.8524863999337,,397.8236080999486,5,397.8524863999337,397.8524863999337,0.01077999989502132,399.68999430001713,[-0.388],[0.372],[1],[0],[0],[1.8555416001472622],[],579803,001,2024-10-01_23h36.53.055,VisualSearchTask,2024.1.5,None,2024-10-01 23h36.57.707411 +0530,
198,0,198,0,399.7206472000107,,399.6922768999357,5,399.7206472000107,399.7206472000107,0.010596400126814842,401.59207520005293,[-0.066],[-0.318],[1],[0],[0],[1.8890251000411808],['target'],579803,001,2024-10-01_23h36.53.055,VisualSearchTask,2024.1.5,None,2024-10-01 23h36.57.707411 +0530,
199,0,199,0,401.62332720006816,,401.5942180000711,5,401.62332720006816,401.62332720006816,0.010385400149971247,403.360972299939,[-0.374],[0.08],[1],[0],[0],[1.7563664999324828],['target'],579803,001,2024-10-01_23h36.53.055,VisualSearchTask,2024.1.5,None,2024-10-01 23h36.57.707411 +0530,
