trials.thisRepN,trials.thisTrialN,trials.thisN,trials.thisIndex,thisRow.t,notes,trial.started,num_distr,fixation.started,target.started,mouse.started,trial.stopped,mouse.x,mouse.y,mouse.leftButton,mouse.midButton,mouse.rightButton,mouse.time,mouse.clicked_name,participant,session,date,expName,psychopyVersion,frameRate,expStart,
0,0,0,0,0.08039009999998825,,0.018799399999977595,10,0.08039009999998825,0.08039009999998825,0.052006799999958275,14.45328539999997,[0.476],[-0.414],[1],[0],[0],[14.400730699999997],['target'],870809,001,2024-10-02_00h04.02.008,VisualSearchTask,2024.1.5,None,2024-10-02 00h04.11.497712 +0530,
1,0,1,0,14.497100100000011,,14.457818799999984,10,14.497100100000011,14.497100100000011,0.024316900000030728,17.05245359999998,[0.148],[-0.152],[1],[0],[0],[2.5703407999999968],['target'],870809,001,2024-10-02_00h04.02.008,VisualSearchTask,2024.1.5,None,2024-10-02 00h04.11.497712 +0530,
2,0,2,0,17.116446300000007,,17.0562405,10,17.116446300000007,17.116446300000007,0.03511810000003379,19.604734899999983,[-0.106],[0.156],[1],[0],[0],[2.513639899999987],[],870809,001,2024-10-02_00h04.02.008,VisualSearchTask,2024.1.5,None,2024-10-02 00h04.11.497712 +0530,
3,0,3,0,19.654084099999977,,19.608149400000002,5,19.654084099999977,19.654084099999977,0.029182099999957245,23.876509999999996,[-0.164],[0.348],[1],[0],[0],[4.23914689999998],['target'],870809,001,2024-10-02_00h04.02.008,VisualSearchTask,2024.1.5,None,2024-10-02 00h04.11.497712 +0530,
4,0,4,0,23.90738799999997,,23.878809100000012,5,23.90738799999997,23.90738799999997,0.01091350000001512,25.595752500000003,[0.172],[-0.172],[1],[0],[0],[1.7059611999999902],['target'],870809,001,2024-10-02_00h04.02.008,VisualSearchTask,2024.1.5,None,2024-10-02 00h04.11.497712 +0530,
5,0,5,0,25.642673300000013,,25.598175400000002,10,25.642673300000013,25.642673300000013,0.024569100000007893,27.830487699999992,[-0.212],[-0.334],[1],[0],[0],[2.2076622999999813],['target'],870809,001,2024-10-02_00h04.02.008,VisualSearchTask,2024.1.5,None,2024-10-02 00h04.11.497712 +0530,
6,0,6,0,27.87874579999999,,27.83345829999996,10,27.87874579999999,27.87874579999999,0.02756579999999076,30.901348199999973,[0.236],[-0.374],[1],[0],[0],[3.040564600000039],['target'],870809,001,2024-10-02_00h04.02.008,VisualSearchTask,2024.1.5,None,2024-10-02 00h04.11.497712 +0530,
7,0,7,0,30.964799700000015,,30.9050522,10,30.964799700000015,30.964799700000015,0.03760119999998324,33.30412530000001,[-0.118],[-0.074],[1],[0],[0],[2.361696199999983],['target'],870809,001,2024-10-02_00h04.02.008,VisualSearchTask,2024.1.5,None,2024-10-02 00h04.11.497712 +0530,
8,0,8,0,33.33499389999997,,33.30650779999996,5,33.33499389999997,33.33499389999997,0.01311470000001691,35.47292049999999,[-0.052],[-0.276],[1],[0],[0],[2.1532163999999625],['target'],870809,001,2024-10-02_00h04.02.008,VisualSearchTask,2024.1.5,None,2024-10-02 00h04.11.497712 +0530,
9,0,9,0,35.52012709999997,,35.47534559999997,10,35.52012709999997,35.52012709999997,0.023298899999986133,37.94234039999998,[-0.102],[-0.342],[1],[0],[0],[2.443565299999989],['target'],870809,001,2024-10-02_00h04.02.008,VisualSearchTask,2024.1.5,None,2024-10-02 00h04.11.497712 +0530,
10,0,10,0,37.973138300000016,,37.94457019999999,5,37.973138300000016,37.973138300000016,0.012089900000034959,40.545529699999975,[0.196],[-0.444],[1],[0],[0],[2.5886433999999667],['target'],870809,001,2024-10-02_00h04.02.008,VisualSearchTask,2024.1.5,None,2024-10-02 00h04.11.497712 +0530,
11,0,11,0,40.59244050000001,,40.54769870000001,10,40.59244050000001,40.59244050000001,0.024231099999951766,43.080485399999986,[0.004],[-0.036],[1],[0],[0],[2.5083738000000153],['target'],870809,001,2024-10-02_00h04.02.008,VisualSearchTask,2024.1.5,None,2024-10-02 00h04.11.497712 +0530,
12,0,12,0,43.11201629999999,,43.08273869999999,5,43.11201629999999,43.11201629999999,0.011175299999990784,45.45105799999999,[0.068],[0.37],[1],[0],[0],[2.357113200000015],['target'],870809,001,2024-10-02_00h04.02.008,VisualSearchTask,2024.1.5,None,2024-10-02 00h04.11.497712 +0530,
13,0,13,0,45.497898599999985,,45.453484300000014,10,45.497898599999985,45.497898599999985,0.022723499999983687,46.08417659999998,[0.068],[0.37],[1],[0],[0],[0.6079304000000434],[],870809,001,2024-10-02_00h04.02.008,VisualSearchTask,2024.1.5,None,2024-10-02 00h04.11.497712 +0530,
14,0,14,0,46.131704799999966,,46.08667329999997,10,46.131704799999966,46.131704799999966,0.02710989999997082,49.58763619999996,[0.284],[-0.468],[1],[0],[0],[3.4738057999999796],['target'],870809,001,2024-10-02_00h04.02.008,VisualSearchTask,2024.1.5,None,2024-10-02 00h04.11.497712 +0530,
15,0,15,0,49.61896079999997,,49.5899,5,49.61896079999997,49.61896079999997,0.010926600000004782,51.62450289999998,[0.292],[-0.04],[1],[0],[0],[2.0236136999999985],['target'],870809,001,2024-10-02_00h04.02.008,VisualSearchTask,2024.1.5,None,2024-10-02 00h04.11.497712 +0530,
16,0,16,0,51.67142389999998,,51.62687690000001,10,51.67142389999998,51.67142389999998,0.023103600000013103,53.47561109999998,[0.164],[0.21],[1],[0],[0],[1.825523999999973],['target'],870809,001,2024-10-02_00h04.02.008,VisualSearchTask,2024.1.5,None,2024-10-02 00h04.11.497712 +0530,
17,0,17,0,53.5235012,,53.47838999999999,10,53.5235012,53.5235012,0.025221500000043306,55.3284865,[-0.362],[-0.346],[1],[0],[0],[1.8247448999999847],['target'],870809,001,2024-10-02_00h04.02.008,VisualSearchTask,2024.1.5,None,2024-10-02 00h04.11.497712 +0530,
18,0,18,0,55.37556330000001,,55.33079729999997,10,55.37556330000001,55.37556330000001,0.024798999999973148,58.331517599999984,[0.078],[0.254],[1],[0],[0],[2.975886799999955],['target'],870809,001,2024-10-02_00h04.02.008,VisualSearchTask,2024.1.5,None,2024-10-02 00h04.11.497712 +0530,
19,0,19,0,58.37920559999998,,58.33389219999998,10,58.37920559999998,58.37920559999998,0.02736099999998487,61.2847309,[0.114],[0.26],[1],[0],[0],[2.9234150999999997],['target'],870809,001,2024-10-02_00h04.02.008,VisualSearchTask,2024.1.5,None,2024-10-02 00h04.11.497712 +0530,
20,0,20,0,61.33233250000001,,61.2870896,10,61.33233250000001,61.33233250000001,0.026166399999965506,63.620470799999964,[-0.24],[0.048],[1],[0],[0],[2.3070298000000093],['target'],870809,001,2024-10-02_00h04.02.008,VisualSearchTask,2024.1.5,None,2024-10-02 00h04.11.497712 +0530,
21,0,21,0,63.65149709999997,,63.62282579999999,5,63.65149709999997,63.65149709999997,0.012622799999974177,65.45587339999997,[0.27],[0.132],[1],[0],[0],[1.820331699999997],[],870809,001,2024-10-02_00h04.02.008,VisualSearchTask,2024.1.5,None,2024-10-02 00h04.11.497712 +0530,
22,0,22,0,65.50339049999997,,65.45820959999998,10,65.50339049999997,65.50339049999997,0.022852199999988443,69.12663889999999,[-0.33],[0.02],[1],[0],[0],[3.645439500000009],['target'],870809,001,2024-10-02_00h04.02.008,VisualSearchTask,2024.1.5,None,2024-10-02 00h04.11.497712 +0530,
23,0,23,0,69.15668690000001,,69.12908219999997,5,69.15668690000001,69.15668690000001,0.01259960000004412,71.6963374,[0.318],[0.332],[1],[0],[0],[2.554559300000051],['target'],870809,001,2024-10-02_00h04.02.008,VisualSearchTask,2024.1.5,None,2024-10-02 00h04.11.497712 +0530,
24,0,24,0,71.7269632,,71.69876579999999,5,71.7269632,71.7269632,0.01264200000002802,74.41604949999999,[-0.328],[0.418],[1],[0],[0],[2.704706499999986],['target'],870809,001,2024-10-02_00h04.02.008,VisualSearchTask,2024.1.5,None,2024-10-02 00h04.11.497712 +0530,
25,0,25,0,74.4459933,,74.41848269999997,5,74.4459933,74.4459933,0.013740600000005543,76.53507830000001,[-0.104],[0.006],[1],[0],[0],[2.1027348000000075],['target'],870809,001,2024-10-02_00h04.02.008,VisualSearchTask,2024.1.5,None,2024-10-02 00h04.11.497712 +0530,
26,0,26,0,76.58252849999997,,76.5377221,10,76.58252849999997,76.58252849999997,0.024085700000000543,78.60363319999999,[-0.292],[0.236],[1],[0],[0],[2.0417752000000178],['target'],870809,001,2024-10-02_00h04.02.008,VisualSearchTask,2024.1.5,None,2024-10-02 00h04.11.497712 +0530,
27,0,27,0,78.65166199999999,,78.60594270000001,10,78.65166199999999,78.65166199999999,0.024213600000052793,81.59079029999998,[0.258],[-0.46],[1],[0],[0],[2.9604916000000117],['target'],870809,001,2024-10-02_00h04.02.008,VisualSearchTask,2024.1.5,None,2024-10-02 00h04.11.497712 +0530,
28,0,28,0,81.63802149999998,,81.5931817,10,81.63802149999998,81.63802149999998,0.02398560000000316,84.19308050000001,[-0.276],[0.114],[1],[0],[0],[2.575809300000003],['target'],870809,001,2024-10-02_00h04.02.008,VisualSearchTask,2024.1.5,None,2024-10-02 00h04.11.497712 +0530,
29,0,29,0,84.24070589999997,,84.19546149999996,10,84.24070589999997,84.24070589999997,0.02399520000000166,89.41559209999997,[-0.414],[-0.476],[1],[0],[0],[5.196005300000081],['target'],870809,001,2024-10-02_00h04.02.008,VisualSearchTask,2024.1.5,None,2024-10-02 00h04.11.497712 +0530,
30,0,30,0,89.44639779999994,,89.41785439999995,5,89.44639779999994,89.44639779999994,0.012049599999954808,92.41885589999998,[-0.116],[0.276],[1],[0],[0],[2.989064600000006],['target'],870809,001,2024-10-02_00h04.02.008,VisualSearchTask,2024.1.5,None,2024-10-02 00h04.11.497712 +0530,
31,0,31,0,92.46639799999997,,92.42265089999995,5,92.46639799999997,92.46639799999997,0.022684099999992213,94.48786409999997,[0.286],[-0.052],[1],[0],[0],[2.0427583000000595],['target'],870809,001,2024-10-02_00h04.02.008,VisualSearchTask,2024.1.5,None,2024-10-02 00h04.11.497712 +0530,
32,0,32,0,94.51905670000002,,94.4902404,5,94.51905670000002,94.51905670000002,0.012249499999938962,96.45704419999998,[-0.424],[-0.166],[1],[0],[0],[1.9544557000000395],['target'],870809,001,2024-10-02_00h04.02.008,VisualSearchTask,2024.1.5,None,2024-10-02 00h04.11.497712 +0530,
33,0,33,0,96.48774099999997,,96.45932290000002,5,96.48774099999997,96.48774099999997,0.012420399999996334,98.7932864,[-0.444],[-0.456],[1],[0],[0],[2.321469499999921],['target'],870809,001,2024-10-02_00h04.02.008,VisualSearchTask,2024.1.5,None,2024-10-02 00h04.11.497712 +0530,
34,0,34,0,98.84032299999996,,98.79564620000002,10,98.84032299999996,98.84032299999996,0.022314999999935026,100.52811279999997,[0.046],[-0.028],[1],[0],[0],[1.710039800000004],['target'],870809,001,2024-10-02_00h04.02.008,VisualSearchTask,2024.1.5,None,2024-10-02 00h04.11.497712 +0530,
35,0,35,0,100.5757547,,100.53058719999996,10,100.5757547,100.5757547,0.02404710000007526,103.43056259999997,[0.076],[0.366],[1],[0],[0],[2.8758017999999765],['target'],870809,001,2024-10-02_00h04.02.008,VisualSearchTask,2024.1.5,None,2024-10-02 00h04.11.497712 +0530,
36,0,36,0,103.47862860000004,,103.43280899999996,10,103.47862860000004,103.47862860000004,0.023276600000031067,105.78288489999994,[-0.46],[0.454],[1],[0],[0],[2.3265996999999743],['target'],870809,001,2024-10-02_00h04.02.008,VisualSearchTask,2024.1.5,None,2024-10-02 00h04.11.497712 +0530,
37,0,37,0,105.83049060000002,,105.78533580000004,10,105.83049060000002,105.83049060000002,0.02137070000003405,108.6364494,[-0.132],[0.062],[1],[0],[0],[2.829878000000008],['target'],870809,001,2024-10-02_00h04.02.008,VisualSearchTask,2024.1.5,None,2024-10-02 00h04.11.497712 +0530,
38,0,38,0,108.68375520000001,,108.6387924,10,108.68375520000001,108.68375520000001,0.024004600000012033,111.34145440000003,[0.332],[0.244],[1],[0],[0],[2.6787203999999747],['target'],870809,001,2024-10-02_00h04.02.008,VisualSearchTask,2024.1.5,None,2024-10-02 00h04.11.497712 +0530,
39,0,39,0,111.37037159999994,,111.34823620000003,5,111.37037159999994,111.37037159999994,0.013409500000079788,114.07652349999995,[-0.134],[-0.34],[1],[0],[0],[2.7147712999999385],['target'],870809,001,2024-10-02_00h04.02.008,VisualSearchTask,2024.1.5,None,2024-10-02 00h04.11.497712 +0530,
40,0,40,0,114.10716789999998,,114.07871829999993,5,114.10716789999998,114.10716789999998,0.012314600000081555,116.19462319999997,[0.006],[-0.268],[1],[0],[0],[2.103507000000036],['target'],870809,001,2024-10-02_00h04.02.008,VisualSearchTask,2024.1.5,None,2024-10-02 00h04.11.497712 +0530,
41,0,41,0,116.24274129999998,,116.19775190000001,10,116.24274129999998,116.24274129999998,0.02431689999991704,119.24822139999998,[0.486],[0.478],[1],[0],[0],[3.025982900000031],['target'],870809,001,2024-10-02_00h04.02.008,VisualSearchTask,2024.1.5,None,2024-10-02 00h04.11.497712 +0530,
42,0,42,0,119.27972540000002,,119.2504677,5,119.27972540000002,119.27972540000002,0.011002999999959684,121.28475039999995,[0.3],[0.244],[1],[0],[0],[2.023163899999986],['target'],870809,001,2024-10-02_00h04.02.008,VisualSearchTask,2024.1.5,None,2024-10-02 00h04.11.497712 +0530,
43,0,43,0,121.33141169999993,,121.28709550000002,10,121.33141169999993,121.33141169999993,0.024290299999961462,124.12015030000003,[-0.128],[0.372],[1],[0],[0],[2.808772699999963],['target'],870809,001,2024-10-02_00h04.02.008,VisualSearchTask,2024.1.5,None,2024-10-02 00h04.11.497712 +0530,
44,0,44,0,124.1509355,,124.12251710000004,5,124.1509355,124.1509355,0.01309809999997924,125.92282319999998,[0.324],[0.068],[1],[0],[0],[1.787095299999919],['target'],870809,001,2024-10-02_00h04.02.008,VisualSearchTask,2024.1.5,None,2024-10-02 00h04.11.497712 +0530,
45,0,45,0,125.96989719999993,,125.92531479999997,10,125.96989719999993,125.96989719999993,0.02357459999996081,127.75776019999995,[-0.506],[-0.022],[1],[0],[0],[1.8087240000000975],['target'],870809,001,2024-10-02_00h04.02.008,VisualSearchTask,2024.1.5,None,2024-10-02 00h04.11.497712 +0530,
46,0,46,0,127.80559599999998,,127.7603287,10,127.80559599999998,127.80559599999998,0.02452990000006139,130.22717419999998,[0.228],[-0.46],[1],[0],[0],[2.442161800000008],['target'],870809,001,2024-10-02_00h04.02.008,VisualSearchTask,2024.1.5,None,2024-10-02 00h04.11.497712 +0530,
47,0,47,0,130.25814469999995,,130.22952249999997,5,130.25814469999995,130.25814469999995,0.010818200000016986,132.6130275,[0.424],[-0.242],[1],[0],[0],[2.372566000000006],['target'],870809,001,2024-10-02_00h04.02.008,VisualSearchTask,2024.1.5,None,2024-10-02 00h04.11.497712 +0530,
48,0,48,0,132.64392700000002,,132.61542379999997,5,132.64392700000002,132.64392700000002,0.012845500000025822,135.34927720000002,[-0.402],[0.086],[1],[0],[0],[2.7208736000000044],['target'],870809,001,2024-10-02_00h04.02.008,VisualSearchTask,2024.1.5,None,2024-10-02 00h04.11.497712 +0530,
49,0,49,0,135.38072370000003,,135.35156369999999,5,135.38072370000003,135.38072370000003,0.01344179999989592,137.76921469999996,[0.368],[-0.476],[1],[0],[0],[2.4040372999999136],['target'],870809,001,2024-10-02_00h04.02.008,VisualSearchTask,2024.1.5,None,2024-10-02 00h04.11.497712 +0530,
50,0,50,0,137.79920250000004,,137.7715917,5,137.79920250000004,137.79920250000004,0.012825000000020736,140.17161200000004,[-0.466],[-0.346],[1],[0],[0],[2.387140600000066],['target'],870809,001,2024-10-02_00h04.02.008,VisualSearchTask,2024.1.5,None,2024-10-02 00h04.11.497712 +0530,
51,0,51,0,140.21842980000002,,140.17442620000003,5,140.21842980000002,140.21842980000002,0.018962699999974575,143.59202469999997,[0.372],[-0.266],[1],[0],[0],[3.398384100000044],['target'],870809,001,2024-10-02_00h04.02.008,VisualSearchTask,2024.1.5,None,2024-10-02 00h04.11.497712 +0530,
52,0,52,0,143.63966039999997,,143.5942577,10,143.63966039999997,143.63966039999997,0.024310799999966548,145.94476449999996,[0.278],[0.41],[1],[0],[0],[2.3261079999999765],[],870809,001,2024-10-02_00h04.02.008,VisualSearchTask,2024.1.5,None,2024-10-02 00h04.11.497712 +0530,
53,0,53,0,145.9922353,,145.94715060000004,10,145.9922353,145.9922353,0.023089099999992868,150.33304760000004,[-0.192],[-0.388],[1],[0],[0],[4.362747000000013],['target'],870809,001,2024-10-02_00h04.02.008,VisualSearchTask,2024.1.5,None,2024-10-02 00h04.11.497712 +0530,
54,0,54,0,150.36383289999998,,150.33560040000003,5,150.36383289999998,150.36383289999998,0.011811899999997877,152.43468439999998,[-0.284],[-0.078],[1],[0],[0],[2.087278900000001],['target'],870809,001,2024-10-02_00h04.02.008,VisualSearchTask,2024.1.5,None,2024-10-02 00h04.11.497712 +0530,
55,0,55,0,152.46599429999998,,152.4368884,5,152.46599429999998,152.46599429999998,0.011019499999974869,154.9207604,[0.448],[0.31],[1],[0],[0],[2.4726897000000463],['target'],870809,001,2024-10-02_00h04.02.008,VisualSearchTask,2024.1.5,None,2024-10-02 00h04.11.497712 +0530,
56,0,56,0,154.95184549999993,,154.92316309999995,5,154.95184549999993,154.95184549999993,0.011663799999951152,159.85952319999996,[-0.404],[0.024],[1],[0],[0],[4.924638899999991],['target'],870809,001,2024-10-02_00h04.02.008,VisualSearchTask,2024.1.5,None,2024-10-02 00h04.11.497712 +0530,
57,0,57,0,159.89082019999995,,159.86195949999995,5,159.89082019999995,159.89082019999995,0.012499999999931788,162.16285039999997,[-0.38],[-0.244],[1],[0],[0],[2.2883048999999573],['target'],870809,001,2024-10-02_00h04.02.008,VisualSearchTask,2024.1.5,None,2024-10-02 00h04.11.497712 +0530,
58,0,58,0,162.19335399999994,,162.16517689999995,5,162.19335399999994,162.19335399999994,0.013242200000036064,164.11460429999994,[0.404],[-0.164],[1],[0],[0],[1.9360011999999642],['target'],870809,001,2024-10-02_00h04.02.008,VisualSearchTask,2024.1.5,None,2024-10-02 00h04.11.497712 +0530,
59,0,59,0,164.16236329999998,,164.11681270000003,10,164.16236329999998,164.16236329999998,0.02427069999998821,166.4836757,[0.412],[-0.3],[1],[0],[0],[2.34250899999995],['target'],870809,001,2024-10-02_00h04.02.008,VisualSearchTask,2024.1.5,None,2024-10-02 00h04.11.497712 +0530,
60,0,60,0,166.51487489999994,,166.48612039999995,5,166.51487489999994,166.51487489999994,0.01292949999992743,168.91942609999995,[-0.1],[0.384],[1],[0],[0],[2.4202253999999357],['target'],870809,001,2024-10-02_00h04.02.008,VisualSearchTask,2024.1.5,None,2024-10-02 00h04.11.497712 +0530,
61,0,61,0,168.95070500000003,,168.92171679999996,5,168.95070500000003,168.95070500000003,0.011059799999998177,170.77227699999997,[-0.1],[0.124],[1],[0],[0],[1.8392603999999437],['target'],870809,001,2024-10-02_00h04.02.008,VisualSearchTask,2024.1.5,None,2024-10-02 00h04.11.497712 +0530,
62,0,62,0,170.80257709999995,,170.77453439999994,5,170.80257709999995,170.80257709999995,0.01146819999996751,172.84038259999994,[0.124],[0.138],[1],[0],[0],[2.0542894999999817],['target'],870809,001,2024-10-02_00h04.02.008,VisualSearchTask,2024.1.5,None,2024-10-02 00h04.11.497712 +0530,
63,0,63,0,172.88859440000004,,172.84269869999997,10,172.88859440000004,172.88859440000004,0.023370099999965532,175.3594337,[0.052],[-0.292],[1],[0],[0],[2.4932026999999835],['target'],870809,001,2024-10-02_00h04.02.008,VisualSearchTask,2024.1.5,None,2024-10-02 00h04.11.497712 +0530,
64,0,64,0,175.40742359999996,,175.3616457,10,175.40742359999996,175.40742359999996,0.02370810000002166,177.49695790000004,[0.45],[0.116],[1],[0],[0],[2.1115283999999974],['target'],870809,001,2024-10-02_00h04.02.008,VisualSearchTask,2024.1.5,None,2024-10-02 00h04.11.497712 +0530,
65,0,65,0,177.54289539999996,,177.4993017,10,177.54289539999996,177.54289539999996,0.02345279999997274,180.1326763,[0.296],[0.076],[1],[0],[0],[2.6097432000000254],['target'],870809,001,2024-10-02_00h04.02.008,VisualSearchTask,2024.1.5,None,2024-10-02 00h04.11.497712 +0530,
66,0,66,0,180.17989219999998,,180.13511339999997,10,180.17989219999998,180.17989219999998,0.024141600000007202,182.86935939999995,[-0.444],[-0.27],[1],[0],[0],[2.709959900000058],['target'],870809,001,2024-10-02_00h04.02.008,VisualSearchTask,2024.1.5,None,2024-10-02 00h04.11.497712 +0530,
67,0,67,0,182.91601740000004,,182.87178609999995,10,182.91601740000004,182.91601740000004,0.022829900000033376,185.10433589999997,[0.252],[-0.268],[1],[0],[0],[2.209573500000033],['target'],870809,001,2024-10-02_00h04.02.008,VisualSearchTask,2024.1.5,None,2024-10-02 00h04.11.497712 +0530,
68,0,68,0,185.13526789999997,,185.10690359999995,5,185.13526789999997,185.13526789999997,0.011753399999975045,187.69059650000003,[-0.028],[0.352],[1],[0],[0],[2.5719285999999784],['target'],870809,001,2024-10-02_00h04.02.008,VisualSearchTask,2024.1.5,None,2024-10-02 00h04.11.497712 +0530,
69,0,69,0,187.73803370000002,,187.69287730000002,10,187.73803370000002,187.73803370000002,0.023556099999950675,190.0431114,[0.048],[0.108],[1],[0],[0],[2.326576100000011],['target'],870809,001,2024-10-02_00h04.02.008,VisualSearchTask,2024.1.5,None,2024-10-02 00h04.11.497712 +0530,
70,0,70,0,190.09039769999998,,190.0455027,10,190.09039769999998,190.09039769999998,0.023050099999977647,193.23027080000003,[0.066],[-0.274],[1],[0],[0],[3.1616944000001013],['target'],870809,001,2024-10-02_00h04.02.008,VisualSearchTask,2024.1.5,None,2024-10-02 00h04.11.497712 +0530,
71,0,71,0,193.26071110000004,,193.232818,5,193.26071110000004,193.26071110000004,0.012316800000007788,195.99971149999993,[0.058],[-0.416],[1],[0],[0],[2.754411799999957],['target'],870809,001,2024-10-02_00h04.02.008,VisualSearchTask,2024.1.5,None,2024-10-02 00h04.11.497712 +0530,
72,0,72,0,196.04755649999998,,196.00192220000002,10,196.04755649999998,196.04755649999998,0.02405229999999392,198.30150739999993,[0.4],[-0.164],[1],[0],[0],[2.275364999999965],[],870809,001,2024-10-02_00h04.02.008,VisualSearchTask,2024.1.5,None,2024-10-02 00h04.11.497712 +0530,
73,0,73,0,198.3330259,,198.3039465,5,198.3330259,198.3330259,0.011091899999996713,201.47307110000003,[-0.478],[0.46],[1],[0],[0],[3.1580076999999847],['target'],870809,001,2024-10-02_00h04.02.008,VisualSearchTask,2024.1.5,None,2024-10-02 00h04.11.497712 +0530,
74,0,74,0,201.51927370000004,,201.47782990000002,5,201.51927370000004,201.51927370000004,0.02434440000001814,203.3584325,[-0.018],[0.16],[1],[0],[0],[1.8566704999999502],['target'],870809,001,2024-10-02_00h04.02.008,VisualSearchTask,2024.1.5,None,2024-10-02 00h04.11.497712 +0530,
75,0,75,0,203.38887700000004,,203.3606656,5,203.38887700000004,203.38887700000004,0.013129299999945943,206.36126429999996,[-0.228],[0.194],[1],[0],[0],[2.9873317999999927],['target'],870809,001,2024-10-02_00h04.02.008,VisualSearchTask,2024.1.5,None,2024-10-02 00h04.11.497712 +0530,
76,0,76,0,206.4087771,,206.36359190000002,10,206.4087771,206.4087771,0.023695800000041345,208.39613019999996,[-0.204],[0.018],[1],[0],[0],[2.0088150999999925],['target'],870809,001,2024-10-02_00h04.02.008,VisualSearchTask,2024.1.5,None,2024-10-02 00h04.11.497712 +0530,
77,0,77,0,208.4273407,,208.39900989999995,5,208.4273407,208.4273407,0.013015499999937674,211.3672376,[0.366],[0.3],[1],[0],[0],[2.9552024999999276],['target'],870809,001,2024-10-02_00h04.02.008,VisualSearchTask,2024.1.5,None,2024-10-02 00h04.11.497712 +0530,
78,0,78,0,211.41423400000002,,211.3695138,10,211.41423400000002,211.41423400000002,0.024304700000016055,213.7027357,[0.202],[-0.06],[1],[0],[0],[2.30872880000004],['target'],870809,001,2024-10-02_00h04.02.008,VisualSearchTask,2024.1.5,None,2024-10-02 00h04.11.497712 +0530,
79,0,79,0,213.75013369999994,,213.7050291,10,213.75013369999994,213.75013369999994,0.02192569999999705,215.6552307,[-0.018],[0.19],[1],[0],[0],[1.9281389000000217],['target'],870809,001,2024-10-02_00h04.02.008,VisualSearchTask,2024.1.5,None,2024-10-02 00h04.11.497712 +0530,
80,0,80,0,215.68550250000004,,215.6576038,5,215.68550250000004,215.68550250000004,0.012071200000036697,218.75837889999997,[-0.3],[-0.452],[1],[0],[0],[3.0885906999999406],['target'],870809,001,2024-10-02_00h04.02.008,VisualSearchTask,2024.1.5,None,2024-10-02 00h04.11.497712 +0530,
81,0,81,0,218.7892261,,218.76073709999997,5,218.7892261,218.7892261,0.01293759999998656,221.44415229999998,[-0.468],[-0.366],[1],[0],[0],[2.6704131999999845],['target'],870809,001,2024-10-02_00h04.02.008,VisualSearchTask,2024.1.5,None,2024-10-02 00h04.11.497712 +0530,
82,0,82,0,221.47542449999997,,221.4464638,5,221.47542449999997,221.47542449999997,0.012414600000056453,224.31420869999994,[-0.412],[0.22],[1],[0],[0],[2.855271700000003],['target'],870809,001,2024-10-02_00h04.02.008,VisualSearchTask,2024.1.5,None,2024-10-02 00h04.11.497712 +0530,
83,0,83,0,224.34541810000002,,224.31652509999998,5,224.34541810000002,224.34541810000002,0.013579199999981029,226.84941629999997,[0.106],[-0.162],[1],[0],[0],[2.5192309999999907],['target'],870809,001,2024-10-02_00h04.02.008,VisualSearchTask,2024.1.5,None,2024-10-02 00h04.11.497712 +0530,
84,0,84,0,226.8978563,,226.85226319999998,10,226.8978563,226.8978563,0.023342999999954372,229.2385721,[0.256],[-0.12],[1],[0],[0],[2.363068599999906],['target'],870809,001,2024-10-02_00h04.02.008,VisualSearchTask,2024.1.5,None,2024-10-02 00h04.11.497712 +0530,
85,0,85,0,229.26632869999997,,229.24190200000004,5,229.26632869999997,229.26632869999997,0.017013499999961823,231.92201040000003,[-0.256],[-0.34],[1],[0],[0],[2.6635724999999866],['target'],870809,001,2024-10-02_00h04.02.008,VisualSearchTask,2024.1.5,None,2024-10-02 00h04.11.497712 +0530,
86,0,86,0,231.96973559999998,,231.9246083,10,231.96973559999998,231.96973559999998,0.028194600000006176,235.00851619999997,[-0.14],[0.028],[1],[0],[0],[3.0558412999999973],['target'],870809,001,2024-10-02_00h04.02.008,VisualSearchTask,2024.1.5,None,2024-10-02 00h04.11.497712 +0530,
87,0,87,0,235.03952469999996,,235.01130959999995,5,235.03952469999996,235.03952469999996,0.012656900000024507,236.82749099999995,[0.182],[0.076],[1],[0],[0],[1.8037228000000596],['target'],870809,001,2024-10-02_00h04.02.008,VisualSearchTask,2024.1.5,None,2024-10-02 00h04.11.497712 +0530,
88,0,88,0,236.89199839999998,,236.83222289999998,10,236.89199839999998,236.89199839999998,0.038773600000013175,239.5466445,[-0.41],[-0.248],[1],[0],[0],[2.6762264999999843],['target'],870809,001,2024-10-02_00h04.02.008,VisualSearchTask,2024.1.5,None,2024-10-02 00h04.11.497712 +0530,
89,0,89,0,239.57760189999993,,239.55125449999997,5,239.57760189999993,239.57760189999993,0.017379499999947257,242.7512205,[-0.042],[0.388],[1],[0],[0],[3.1828563999999915],['target'],870809,001,2024-10-02_00h04.02.008,VisualSearchTask,2024.1.5,None,2024-10-02 00h04.11.497712 +0530,
90,0,90,0,242.78190999999998,,242.7540307,5,242.78190999999998,242.78190999999998,0.013779999999997017,244.50225900000004,[0.27],[0.378],[1],[0],[0],[1.734376300000008],['target'],870809,001,2024-10-02_00h04.02.008,VisualSearchTask,2024.1.5,None,2024-10-02 00h04.11.497712 +0530,
91,0,91,0,244.53367020000002,,244.50458450000002,5,244.53367020000002,244.53367020000002,0.011288999999919724,247.22299159999994,[-0.448],[-0.436],[1],[0],[0],[2.7070918000000574],['target'],870809,001,2024-10-02_00h04.02.008,VisualSearchTask,2024.1.5,None,2024-10-02 00h04.11.497712 +0530,
92,0,92,0,247.27022440000002,,247.22575249999994,10,247.27022440000002,247.27022440000002,0.023613100000034137,249.32450320000004,[-0.202],[-0.146],[1],[0],[0],[2.0752195999999685],['target'],870809,001,2024-10-02_00h04.02.008,VisualSearchTask,2024.1.5,None,2024-10-02 00h04.11.497712 +0530,
93,0,93,0,249.35605760000004,,249.32689539999996,5,249.35605760000004,249.35605760000004,0.011972500000069886,251.57712980000002,[-0.17],[-0.346],[1],[0],[0],[2.238187000000039],['target'],870809,001,2024-10-02_00h04.02.008,VisualSearchTask,2024.1.5,None,2024-10-02 00h04.11.497712 +0530,
94,0,94,0,251.62538649999993,,251.58007679999997,10,251.62538649999993,251.62538649999993,0.027525399999944966,254.64686549999993,[0.084],[0.126],[1],[0],[0],[3.0392352000000074],['target'],870809,001,2024-10-02_00h04.02.008,VisualSearchTask,2024.1.5,None,2024-10-02 00h04.11.497712 +0530,
95,0,95,0,254.67751559999994,,254.65115729999997,5,254.67751559999994,254.67751559999994,0.012844800000038958,256.9488799,[0.112],[0.37],[1],[0],[0],[2.285398500000042],['target'],870809,001,2024-10-02_00h04.02.008,VisualSearchTask,2024.1.5,None,2024-10-02 00h04.11.497712 +0530,
96,0,96,0,256.9803658,,256.95129919999994,5,256.9803658,256.9803658,0.015555199999994329,259.70305920000004,[-0.484],[-0.19],[1],[0],[0],[2.7361307999999553],['target'],870809,001,2024-10-02_00h04.02.008,VisualSearchTask,2024.1.5,None,2024-10-02 00h04.11.497712 +0530,
97,0,97,0,259.7501044,,259.7075878,10,259.7501044,259.7501044,0.026585299999965173,263.2566592,[0.404],[0.332],[1],[0],[0],[3.5231363999999985],['target'],870809,001,2024-10-02_00h04.02.008,VisualSearchTask,2024.1.5,None,2024-10-02 00h04.11.497712 +0530,
98,0,98,0,263.28763369999996,,263.2590432,5,263.28763369999996,263.28763369999996,0.014608800000019073,266.9437258,[-0.46],[0.13],[1],[0],[0],[3.670179599999983],['target'],870809,001,2024-10-02_00h04.02.008,VisualSearchTask,2024.1.5,None,2024-10-02 00h04.11.497712 +0530,
99,0,99,0,266.9746296,,266.94630850000004,5,266.9746296,266.9746296,0.012837100000069768,269.04650269999996,[0.448],[0.412],[1],[0],[0],[2.087531800000079],['target'],870809,001,2024-10-02_00h04.02.008,VisualSearchTask,2024.1.5,None,2024-10-02 00h04.11.497712 +0530,
100,0,100,0,269.0936119,,269.0490491,10,269.0936119,269.0936119,0.03131450000000768,271.14974679999995,[0.024],[0.206],[1],[0],[0],[2.069307800000047],['target'],870809,001,2024-10-02_00h04.02.008,VisualSearchTask,2024.1.5,None,2024-10-02 00h04.11.497712 +0530,
101,0,101,0,271.17996539999996,,271.15210010000004,5,271.17996539999996,271.17996539999996,0.01297999999997046,273.56880659999996,[-0.42],[-0.468],[1],[0],[0],[2.4036254999999755],['target'],870809,001,2024-10-02_00h04.02.008,VisualSearchTask,2024.1.5,None,2024-10-02 00h04.11.497712 +0530,
102,0,102,0,273.5996406,,273.5715277,5,273.5996406,273.5996406,0.012856899999974303,274.8191469,[0.11],[0.33],[1],[0],[0],[1.2347919999999704],['target'],870809,001,2024-10-02_00h04.02.008,VisualSearchTask,2024.1.5,None,2024-10-02 00h04.11.497712 +0530,
103,0,103,0,274.86711069999996,,274.8218275,10,274.86711069999996,274.86711069999996,0.024100799999928313,278.02342319999997,[-0.224],[-0.416],[1],[0],[0],[3.1774838000000045],['target'],870809,001,2024-10-02_00h04.02.008,VisualSearchTask,2024.1.5,None,2024-10-02 00h04.11.497712 +0530,
104,0,104,0,278.08699299999995,,278.02655120000003,10,278.08699299999995,278.08699299999995,0.03217509999990398,280.475344,[-0.386],[0.104],[1],[0],[0],[2.4166060000000016],['target'],870809,001,2024-10-02_00h04.02.008,VisualSearchTask,2024.1.5,None,2024-10-02 00h04.11.497712 +0530,
105,0,105,0,280.52286739999994,,280.4797603,10,280.52286739999994,280.52286739999994,0.032366900000056376,282.32825210000004,[-0.284],[0.176],[1],[0],[0],[1.8166985999999952],[],870809,001,2024-10-02_00h04.02.008,VisualSearchTask,2024.1.5,None,2024-10-02 00h04.11.497712 +0530,
106,0,106,0,282.35910640000003,,282.33078489999997,5,282.35910640000003,282.35910640000003,0.013911399999983587,284.89733629999995,[0.426],[0.032],[1],[0],[0],[2.552564400000051],['target'],870809,001,2024-10-02_00h04.02.008,VisualSearchTask,2024.1.5,None,2024-10-02 00h04.11.497712 +0530,
107,0,107,0,284.92871929999995,,284.8996964,5,284.92871929999995,284.92871929999995,0.012039700000059383,287.06728129999993,[-0.388],[-0.452],[1],[0],[0],[2.1554641000000174],['target'],870809,001,2024-10-02_00h04.02.008,VisualSearchTask,2024.1.5,None,2024-10-02 00h04.11.497712 +0530,
108,0,108,0,287.1138861,,287.06965699999995,10,287.1138861,287.1138861,0.023159999999961656,289.4020317,[0.182],[-0.196],[1],[0],[0],[2.309133299999985],['target'],870809,001,2024-10-02_00h04.02.008,VisualSearchTask,2024.1.5,None,2024-10-02 00h04.11.497712 +0530,
109,0,109,0,289.43313059999997,,289.404832,5,289.43313059999997,289.43313059999997,0.013390800000024683,291.62223349999994,[-0.014],[0.296],[1],[0],[0],[2.203997099999924],['target'],870809,001,2024-10-02_00h04.02.008,VisualSearchTask,2024.1.5,None,2024-10-02 00h04.11.497712 +0530,
110,0,110,0,291.65268639999994,,291.6245597,5,291.65268639999994,291.65268639999994,0.01242770000010296,294.1407139,[-0.05],[0.344],[1],[0],[0],[2.5038313999999673],['target'],870809,001,2024-10-02_00h04.02.008,VisualSearchTask,2024.1.5,None,2024-10-02 00h04.11.497712 +0530,
111,0,111,0,294.1714186,,294.1432855,5,294.1714186,294.1714186,0.015151599999967402,296.9609386,[0.356],[-0.272],[1],[0],[0],[2.802443599999947],['target'],870809,001,2024-10-02_00h04.02.008,VisualSearchTask,2024.1.5,None,2024-10-02 00h04.11.497712 +0530,
112,0,112,0,297.00827599999997,,296.96337309999996,10,297.00827599999997,297.00827599999997,0.022869499999956133,299.3801437,[-0.156],[-0.27],[1],[0],[0],[2.393790500000023],['target'],870809,001,2024-10-02_00h04.02.008,VisualSearchTask,2024.1.5,None,2024-10-02 00h04.11.497712 +0530,
113,0,113,0,299.42785239999995,,299.3826774,10,299.42785239999995,299.42785239999995,0.023946799999976065,301.46556819999995,[0.412],[-0.056],[1],[0],[0],[2.0588823000000502],['target'],870809,001,2024-10-02_00h04.02.008,VisualSearchTask,2024.1.5,None,2024-10-02 00h04.11.497712 +0530,
114,0,114,0,301.51336239999995,,301.46802970000005,10,301.51336239999995,301.51336239999995,0.02255200000001878,303.5343492,[0.38],[0.264],[1],[0],[0],[2.043709700000022],['target'],870809,001,2024-10-02_00h04.02.008,VisualSearchTask,2024.1.5,None,2024-10-02 00h04.11.497712 +0530,
115,0,115,0,303.5821533,,303.5376571,10,303.5821533,303.5821533,0.02443170000003647,305.58698439999995,[-0.064],[0.274],[1],[0],[0],[2.02482950000001],['target'],870809,001,2024-10-02_00h04.02.008,VisualSearchTask,2024.1.5,None,2024-10-02 00h04.11.497712 +0530,
116,0,116,0,305.63461420000004,,305.5893596,10,305.63461420000004,305.63461420000004,0.02346430000000055,309.37493820000003,[0.036],[0.068],[1],[0],[0],[3.7620035999999573],['target'],870809,001,2024-10-02_00h04.02.008,VisualSearchTask,2024.1.5,None,2024-10-02 00h04.11.497712 +0530,
117,0,117,0,309.40541549999995,,309.3772379,5,309.40541549999995,309.40541549999995,0.012160900000026231,311.57662320000003,[-0.038],[-0.234],[1],[0],[0],[2.1870594000000665],['target'],870809,001,2024-10-02_00h04.02.008,VisualSearchTask,2024.1.5,None,2024-10-02 00h04.11.497712 +0530,
118,0,118,0,311.6239178,,311.57890419999995,10,311.6239178,311.6239178,0.02270870000006653,313.5464219,[-0.254],[-0.038],[1],[0],[0],[1.9446971999999505],['target'],870809,001,2024-10-02_00h04.02.008,VisualSearchTask,2024.1.5,None,2024-10-02 00h04.11.497712 +0530,
119,0,119,0,313.5765575,,313.548874,5,313.5765575,313.5765575,0.01233270000000175,315.83237949999994,[-0.222],[-0.196],[1],[0],[0],[2.2711399999999458],['target'],870809,001,2024-10-02_00h04.02.008,VisualSearchTask,2024.1.5,None,2024-10-02 00h04.11.497712 +0530,
120,0,120,0,315.8789995,,315.83474040000004,10,315.8789995,315.8789995,0.02204519999997956,318.21838239999994,[0.444],[-0.446],[1],[0],[0],[2.361536600000022],['target'],870809,001,2024-10-02_00h04.02.008,VisualSearchTask,2024.1.5,None,2024-10-02 00h04.11.497712 +0530,
121,0,121,0,318.248499,,318.22148050000004,5,318.248499,318.248499,0.015982200000053126,321.3368565,[0.34],[0.056],[1],[0],[0],[3.0997092000000066],['target'],870809,001,2024-10-02_00h04.02.008,VisualSearchTask,2024.1.5,None,2024-10-02 00h04.11.497712 +0530,
122,0,122,0,321.3851699,,321.3392617,10,321.3851699,321.3851699,0.022875900000030924,323.97385460000004,[0.368],[0.444],[1],[0],[0],[2.611541799999941],['target'],870809,001,2024-10-02_00h04.02.008,VisualSearchTask,2024.1.5,None,2024-10-02 00h04.11.497712 +0530,
123,0,123,0,324.021332,,323.97621079999993,10,324.021332,324.021332,0.022435700000073666,326.47644740000004,[0.262],[-0.236],[1],[0],[0],[2.4777096999999912],['target'],870809,001,2024-10-02_00h04.02.008,VisualSearchTask,2024.1.5,None,2024-10-02 00h04.11.497712 +0530,
124,0,124,0,326.5237427,,326.47875459999995,10,326.5237427,326.5237427,0.02185020000001714,328.41264099999995,[0.106],[0.236],[1],[0],[0],[1.9119692000000441],['target'],870809,001,2024-10-02_00h04.02.008,VisualSearchTask,2024.1.5,None,2024-10-02 00h04.11.497712 +0530,
125,0,125,0,328.45920369999993,,328.41524839999994,10,328.45920369999993,328.45920369999993,0.03175549999991745,331.26529379999994,[0.32],[-0.378],[1],[0],[0],[2.8182279000000108],['target'],870809,001,2024-10-02_00h04.02.008,VisualSearchTask,2024.1.5,None,2024-10-02 00h04.11.497712 +0530,
126,0,126,0,331.3129002,,331.2676522,10,331.3129002,331.3129002,0.022819499999968684,334.55282489999996,[-0.356],[0.466],[1],[0],[0],[3.2622208999999884],['target'],870809,001,2024-10-02_00h04.02.008,VisualSearchTask,2024.1.5,None,2024-10-02 00h04.11.497712 +0530,
127,0,127,0,334.599983,,334.55515699999995,10,334.599983,334.599983,0.022458500000084314,337.72289340000003,[-0.002],[-0.404],[1],[0],[0],[3.145041499999934],[],870809,001,2024-10-02_00h04.02.008,VisualSearchTask,2024.1.5,None,2024-10-02 00h04.11.497712 +0530,
128,0,128,0,337.76975509999994,,337.7254804,10,337.76975509999994,337.76975509999994,0.02269130000001951,340.44231799999994,[-0.172],[-0.366],[1],[0],[0],[2.694048100000032],[],870809,001,2024-10-02_00h04.02.008,VisualSearchTask,2024.1.5,None,2024-10-02 00h04.11.497712 +0530,
129,0,129,0,340.4727321,,340.4446793,5,340.4727321,340.4727321,0.012389800000050855,343.5622659,[0.332],[0.292],[1],[0],[0],[3.105214499999988],['target'],870809,001,2024-10-02_00h04.02.008,VisualSearchTask,2024.1.5,None,2024-10-02 00h04.11.497712 +0530,
130,0,130,0,343.59338210000004,,343.5646128,5,343.59338210000004,343.59338210000004,0.01266370000007555,345.7479847,[0.292],[0.014],[1],[0],[0],[2.170675899999992],['target'],870809,001,2024-10-02_00h04.02.008,VisualSearchTask,2024.1.5,None,2024-10-02 00h04.11.497712 +0530,
131,0,131,0,345.79555999999997,,345.75029539999997,10,345.79555999999997,345.79555999999997,0.022511299999905532,347.9338958,[0.346],[0.206],[1],[0],[0],[2.1609721999999465],['target'],870809,001,2024-10-02_00h04.02.008,VisualSearchTask,2024.1.5,None,2024-10-02 00h04.11.497712 +0530,
132,0,132,0,347.9644113,,347.9361691,5,347.9644113,347.9644113,0.01084359999993012,350.21912230000004,[0.332],[0.02],[1],[0],[0],[2.2720251999999164],['target'],870809,001,2024-10-02_00h04.02.008,VisualSearchTask,2024.1.5,None,2024-10-02 00h04.11.497712 +0530,
133,0,133,0,350.2673382,,350.22131099999996,10,350.2673382,350.2673382,0.023689099999955943,353.15559160000004,[0.064],[-0.396],[1],[0],[0],[2.910545999999954],['target'],870809,001,2024-10-02_00h04.02.008,VisualSearchTask,2024.1.5,None,2024-10-02 00h04.11.497712 +0530,
134,0,134,0,353.1868711,,353.15781079999994,5,353.1868711,353.1868711,0.011152499999980137,355.576214,[0.264],[0.32],[1],[0],[0],[2.4070478999999523],['target'],870809,001,2024-10-02_00h04.02.008,VisualSearchTask,2024.1.5,None,2024-10-02 00h04.11.497712 +0530,
135,0,135,0,355.606517,,355.57845619999995,5,355.606517,355.606517,0.011806699999965531,358.0450556,[-0.38],[0.176],[1],[0],[0],[2.4545088999999507],['target'],870809,001,2024-10-02_00h04.02.008,VisualSearchTask,2024.1.5,None,2024-10-02 00h04.11.497712 +0530,
136,0,136,0,358.09217570000004,,358.0472358,10,358.09217570000004,358.09217570000004,0.021640600000068844,360.61303489999995,[-0.22],[-0.364],[1],[0],[0],[2.5441657000000077],['target'],870809,001,2024-10-02_00h04.02.008,VisualSearchTask,2024.1.5,None,2024-10-02 00h04.11.497712 +0530,
137,0,137,0,360.6784846,,360.6177724,10,360.6784846,360.6784846,0.035723000000075444,362.8331456,[0.338],[-0.036],[1],[0],[0],[2.179948500000023],['target'],870809,001,2024-10-02_00h04.02.008,VisualSearchTask,2024.1.5,None,2024-10-02 00h04.11.497712 +0530,
138,0,138,0,362.86397089999997,,362.8353491,5,362.86397089999997,362.86397089999997,0.010654100000010658,365.82078770000004,[-0.478],[-0.078],[1],[0],[0],[2.974716599999965],[],870809,001,2024-10-02_00h04.02.008,VisualSearchTask,2024.1.5,None,2024-10-02 00h04.11.497712 +0530,
139,0,139,0,365.8506908,,365.8237055,5,365.8506908,365.8506908,0.014633700000104,368.1556222,[0.4],[-0.234],[1],[0],[0],[2.3177084999999806],['target'],870809,001,2024-10-02_00h04.02.008,VisualSearchTask,2024.1.5,None,2024-10-02 00h04.11.497712 +0530,
140,0,140,0,368.18700299999995,,368.1585789,5,368.18700299999995,368.18700299999995,0.013764700000024277,370.44245589999997,[-0.38],[0.376],[1],[0],[0],[2.2703705999999784],[],870809,001,2024-10-02_00h04.02.008,VisualSearchTask,2024.1.5,None,2024-10-02 00h04.11.497712 +0530,
141,0,141,0,370.48929789999994,,370.44688319999995,10,370.48929789999994,370.48929789999994,0.025004600000102073,372.611162,[0.18],[0.45],[1],[0],[0],[2.139732199999912],[],870809,001,2024-10-02_00h04.02.008,VisualSearchTask,2024.1.5,None,2024-10-02 00h04.11.497712 +0530,
142,0,142,0,372.65802,,372.6137289,10,372.65802,372.65802,0.022989700000039193,374.74633249999994,[0.098],[0.412],[1],[0],[0],[2.109487999999942],['target'],870809,001,2024-10-02_00h04.02.008,VisualSearchTask,2024.1.5,None,2024-10-02 00h04.11.497712 +0530,
143,0,143,0,374.77787989999996,,374.7486951,5,374.77787989999996,374.77787989999996,0.013332999999988715,377.26574120000004,[-0.188],[-0.252],[1],[0],[0],[2.5035139999999956],[],870809,001,2024-10-02_00h04.02.008,VisualSearchTask,2024.1.5,None,2024-10-02 00h04.11.497712 +0530,
144,0,144,0,377.31371340000004,,377.2681107,10,377.31371340000004,377.31371340000004,0.025164700000004814,379.40132520000003,[0.316],[0.116],[1],[0],[0],[2.1079008999998905],['target'],870809,001,2024-10-02_00h04.02.008,VisualSearchTask,2024.1.5,None,2024-10-02 00h04.11.497712 +0530,
145,0,145,0,379.4331223,,379.40361879999995,5,379.4331223,379.4331223,0.010920100000021193,382.3552646,[-0.332],[0.412],[1],[0],[0],[2.940529799999922],['target'],870809,001,2024-10-02_00h04.02.008,VisualSearchTask,2024.1.5,None,2024-10-02 00h04.11.497712 +0530,
146,0,146,0,382.40277969999994,,382.35750649999994,10,382.40277969999994,382.40277969999994,0.023016399999960413,383.9743563,[-0.416],[-0.076],[1],[0],[0],[1.5937895999999228],['target'],870809,001,2024-10-02_00h04.02.008,VisualSearchTask,2024.1.5,None,2024-10-02 00h04.11.497712 +0530,
147,0,147,0,384.004349,,383.9767909,5,384.004349,384.004349,0.011839200000054007,387.0102241,[0.026],[0.274],[1],[0],[0],[3.021599100000003],[],870809,001,2024-10-02_00h04.02.008,VisualSearchTask,2024.1.5,None,2024-10-02 00h04.11.497712 +0530,
148,0,148,0,387.04096869999995,,387.01258609999996,5,387.04096869999995,387.04096869999995,0.012957600000049752,389.39613879999996,[0.274],[0.376],[1],[0],[0],[2.370462599999996],['target'],870809,001,2024-10-02_00h04.02.008,VisualSearchTask,2024.1.5,None,2024-10-02 00h04.11.497712 +0530,
149,0,149,0,389.4269698,,389.3984998,5,389.4269698,389.4269698,0.0121583999999757,391.84954220000003,[-0.424],[0.182],[1],[0],[0],[2.4387265000000298],['target'],870809,001,2024-10-02_00h04.02.008,VisualSearchTask,2024.1.5,None,2024-10-02 00h04.11.497712 +0530,
150,0,150,0,391.8962456,,391.85213219999997,10,391.8962456,391.8962456,0.02431780000006256,394.6832241,[0.288],[0.104],[1],[0],[0],[2.8069315999999844],['target'],870809,001,2024-10-02_00h04.02.008,VisualSearchTask,2024.1.5,None,2024-10-02 00h04.11.497712 +0530,
151,0,151,0,394.7148077,,394.68605069999995,5,394.7148077,394.7148077,0.010907200000019657,396.654151,[0.084],[-0.286],[1],[0],[0],[1.9571176000000605],['target'],870809,001,2024-10-02_00h04.02.008,VisualSearchTask,2024.1.5,None,2024-10-02 00h04.11.497712 +0530,
152,0,152,0,396.70143490000004,,396.6563895,10,396.70143490000004,396.70143490000004,0.022138000000040847,398.62252900000004,[0.246],[0.038],[1],[0],[0],[1.9438449000000446],['target'],870809,001,2024-10-02_00h04.02.008,VisualSearchTask,2024.1.5,None,2024-10-02 00h04.11.497712 +0530,
153,0,153,0,398.65412799999996,,398.62498809999994,5,398.65412799999996,398.65412799999996,0.01294129999996585,400.69133059999996,[0.148],[0.202],[1],[0],[0],[2.053316699999982],['target'],870809,001,2024-10-02_00h04.02.008,VisualSearchTask,2024.1.5,None,2024-10-02 00h04.11.497712 +0530,
154,0,154,0,400.7224603,,400.69379910000004,5,400.7224603,400.7224603,0.012719999999944775,402.9954965,[0.39],[-0.418],[1],[0],[0],[2.288880400000039],['target'],870809,001,2024-10-02_00h04.02.008,VisualSearchTask,2024.1.5,None,2024-10-02 00h04.11.497712 +0530,
155,0,155,0,403.02519739999997,,402.99788299999994,5,403.02519739999997,403.02519739999997,0.012263699999948585,405.2464707,[0.012],[0.296],[1],[0],[0],[2.236112800000001],['target'],870809,001,2024-10-02_00h04.02.008,VisualSearchTask,2024.1.5,None,2024-10-02 00h04.11.497712 +0530,
156,0,156,0,405.29408889999996,,405.2486994,10,405.29408889999996,405.29408889999996,0.022272199999974873,407.5663226,[0.414],[-0.278],[1],[0],[0],[2.295300099999963],['target'],870809,001,2024-10-02_00h04.02.008,VisualSearchTask,2024.1.5,None,2024-10-02 00h04.11.497712 +0530,
157,0,157,0,407.6135,,407.5694798,10,407.6135,407.6135,0.024190399999952206,411.03635790000004,[-0.18],[0.438],[1],[0],[0],[3.4426022000000103],['target'],870809,001,2024-10-02_00h04.02.008,VisualSearchTask,2024.1.5,None,2024-10-02 00h04.11.497712 +0530,
158,0,158,0,411.06733019999996,,411.0386081,5,411.06733019999996,411.06733019999996,0.011097800000015923,414.2065389,[-0.408],[-0.02],[0],[0],[1],[3.156661500000041],['target'],870809,001,2024-10-02_00h04.02.008,VisualSearchTask,2024.1.5,None,2024-10-02 00h04.11.497712 +0530,
159,0,159,0,414.25403550000004,,414.2089001,10,414.25403550000004,414.25403550000004,0.022705299999984163,416.59199429999995,[0.132],[0.322],[1],[0],[0],[2.360221499999966],['target'],870809,001,2024-10-02_00h04.02.008,VisualSearchTask,2024.1.5,None,2024-10-02 00h04.11.497712 +0530,
160,0,160,0,416.6402288,,416.5942713,10,416.6402288,416.6402288,0.022695399999975052,419.27879060000004,[0.276],[-0.268],[1],[0],[0],[2.661717000000067],['target'],870809,001,2024-10-02_00h04.02.008,VisualSearchTask,2024.1.5,None,2024-10-02 00h04.11.497712 +0530,
161,0,161,0,419.30983009999994,,419.2811859,5,419.30983009999994,419.30983009999994,0.012988600000085171,421.7147153,[0.36],[0.476],[1],[0],[0],[2.420715300000097],['target'],870809,001,2024-10-02_00h04.02.008,VisualSearchTask,2024.1.5,None,2024-10-02 00h04.11.497712 +0530,
162,0,162,0,421.76227980000004,,421.71697539999997,10,421.76227980000004,421.76227980000004,0.022952700000018922,426.0367277,[-0.234],[0.144],[1],[0],[0],[4.296751299999983],['target'],870809,001,2024-10-02_00h04.02.008,VisualSearchTask,2024.1.5,None,2024-10-02 00h04.11.497712 +0530,
163,0,163,0,426.08375729999995,,426.03914460000004,10,426.08375729999995,426.08375729999995,0.025478399999997237,428.6559491,[-0.324],[0.45],[1],[0],[0],[2.5911611999999877],['target'],870809,001,2024-10-02_00h04.02.008,VisualSearchTask,2024.1.5,None,2024-10-02 00h04.11.497712 +0530,
164,0,164,0,428.6870303,,428.65820279999997,5,428.6870303,428.6870303,0.01245640000001913,431.15898020000003,[0.226],[-0.202],[1],[0],[0],[2.4882151000000476],['target'],870809,001,2024-10-02_00h04.02.008,VisualSearchTask,2024.1.5,None,2024-10-02 00h04.11.497712 +0530,
165,0,165,0,431.206212,,431.1612938,10,431.206212,431.206212,0.024463299999979427,433.5617454,[-0.126],[-0.032],[1],[0],[0],[2.3759862999999086],['target'],870809,001,2024-10-02_00h04.02.008,VisualSearchTask,2024.1.5,None,2024-10-02 00h04.11.497712 +0530,
166,0,166,0,433.59188019999993,,433.5639849,5,433.59188019999993,433.59188019999993,0.011387200000058328,436.3976406,[-0.404],[-0.354],[1],[0],[0],[2.8222197999999707],['target'],870809,001,2024-10-02_00h04.02.008,VisualSearchTask,2024.1.5,None,2024-10-02 00h04.11.497712 +0530,
167,0,167,0,436.428561,,436.3999978,5,436.428561,436.428561,0.012963599999920916,439.7349112,[0.386],[0.494],[1],[0],[0],[3.3218056000000615],['target'],870809,001,2024-10-02_00h04.02.008,VisualSearchTask,2024.1.5,None,2024-10-02 00h04.11.497712 +0530,
168,0,168,0,439.7824416,,439.7372804,10,439.7824416,439.7824416,0.024088099999971746,442.3207348,[0.144],[-0.058],[1],[0],[0],[2.559282499999995],['target'],870809,001,2024-10-02_00h04.02.008,VisualSearchTask,2024.1.5,None,2024-10-02 00h04.11.497712 +0530,
169,0,169,0,442.3511762,,442.3230657,5,442.3511762,442.3511762,0.01396470000008776,444.5732122,[-0.354],[-0.384],[1],[0],[0],[2.2360511000000542],['target'],870809,001,2024-10-02_00h04.02.008,VisualSearchTask,2024.1.5,None,2024-10-02 00h04.11.497712 +0530,
170,0,170,0,444.6212916,,444.5756203,10,444.6212916,444.6212916,0.024266099999977087,446.67545479999995,[-0.28],[-0.23],[1],[0],[0],[2.0754393999999365],['target'],870809,001,2024-10-02_00h04.02.008,VisualSearchTask,2024.1.5,None,2024-10-02 00h04.11.497712 +0530,
171,0,171,0,446.7235489,,446.6778397,10,446.7235489,446.7235489,0.02393019999999524,448.61110519999994,[-0.43],[-0.176],[1],[0],[0],[1.9092183000000205],['target'],870809,001,2024-10-02_00h04.02.008,VisualSearchTask,2024.1.5,None,2024-10-02 00h04.11.497712 +0530,
172,0,172,0,448.6421899,,448.6136929,5,448.6421899,448.6421899,0.013746699999956036,450.59719319999994,[0.374],[0.092],[1],[0],[0],[1.969711200000006],['target'],870809,001,2024-10-02_00h04.02.008,VisualSearchTask,2024.1.5,None,2024-10-02 00h04.11.497712 +0530,
173,0,173,0,450.62767019999995,,450.59953820000004,5,450.62767019999995,450.62767019999995,0.012030600000002778,452.63289619999995,[0.468],[-0.05],[1],[0],[0],[2.021160000000009],['target'],870809,001,2024-10-02_00h04.02.008,VisualSearchTask,2024.1.5,None,2024-10-02 00h04.11.497712 +0530,
174,0,174,0,452.68018279999995,,452.63522729999994,10,452.68018279999995,452.68018279999995,0.02374639999993633,454.9349268,[-0.23],[-0.364],[1],[0],[0],[2.275789800000098],['target'],870809,001,2024-10-02_00h04.02.008,VisualSearchTask,2024.1.5,None,2024-10-02 00h04.11.497712 +0530,
175,0,175,0,454.96621120000003,,454.93718359999997,5,454.96621120000003,454.96621120000003,0.012087699999938195,457.63844609999995,[0.028],[-0.018],[1],[0],[0],[2.68906800000002],['target'],870809,001,2024-10-02_00h04.02.008,VisualSearchTask,2024.1.5,None,2024-10-02 00h04.11.497712 +0530,
176,0,176,0,457.6854507,,457.6408018,10,457.6854507,457.6854507,0.02384910000000673,460.2068989,[-0.47],[-0.412],[0],[0],[1],[2.5421481999999287],[],870809,001,2024-10-02_00h04.02.008,VisualSearchTask,2024.1.5,None,2024-10-02 00h04.11.497712 +0530,
177,0,177,0,460.23815899999994,,460.2093385,5,460.23815899999994,460.23815899999994,0.012888900000007197,462.9775573,[-0.16],[-0.242],[1],[0],[0],[2.7552009999999427],['target'],870809,001,2024-10-02_00h04.02.008,VisualSearchTask,2024.1.5,None,2024-10-02 00h04.11.497712 +0530,
178,0,178,0,463.0245173,,462.9798946,10,463.0245173,463.0245173,0.022808400000030815,466.1642632,[-0.502],[0.058],[1],[0],[0],[3.1614342000000306],['target'],870809,001,2024-10-02_00h04.02.008,VisualSearchTask,2024.1.5,None,2024-10-02 00h04.11.497712 +0530,
179,0,179,0,466.1946684,,466.16670529999993,5,466.1946684,466.1946684,0.013267000000041662,468.7833559,[0.29],[-0.172],[1],[0],[0],[2.6032337000000325],['target'],870809,001,2024-10-02_00h04.02.008,VisualSearchTask,2024.1.5,None,2024-10-02 00h04.11.497712 +0530,
180,0,180,0,468.83142259999994,,468.78573309999996,10,468.83142259999994,468.83142259999994,0.025584299999991345,470.50232149999994,[0.296],[-0.314],[1],[0],[0],[1.690973799999938],['target'],870809,001,2024-10-02_00h04.02.008,VisualSearchTask,2024.1.5,None,2024-10-02 00h04.11.497712 +0530,
181,0,181,0,470.5488201,,470.50473300000004,10,470.5488201,470.5488201,0.025307399999974223,472.68738709999997,[-0.09],[-0.308],[1],[0],[0],[2.157212500000014],['target'],870809,001,2024-10-02_00h04.02.008,VisualSearchTask,2024.1.5,None,2024-10-02 00h04.11.497712 +0530,
182,0,182,0,472.73485609999994,,472.6898217,10,472.73485609999994,472.73485609999994,0.023624199999972006,474.72281289999995,[0.418],[-0.062],[1],[0],[0],[2.0091826999999967],['target'],870809,001,2024-10-02_00h04.02.008,VisualSearchTask,2024.1.5,None,2024-10-02 00h04.11.497712 +0530,
183,0,183,0,474.7541865,,474.72514329999996,5,474.7541865,474.7541865,0.01104279999992741,477.1598615,[-0.116],[0.172],[1],[0],[0],[2.4235344999999597],['target'],870809,001,2024-10-02_00h04.02.008,VisualSearchTask,2024.1.5,None,2024-10-02 00h04.11.497712 +0530,
184,0,184,0,477.2071726,,477.1622441,10,477.2071726,477.2071726,0.024293300000067575,478.00968529999994,[-0.116],[0.172],[1],[0],[0],[0.823059599999965],['target'],870809,001,2024-10-02_00h04.02.008,VisualSearchTask,2024.1.5,None,2024-10-02 00h04.11.497712 +0530,
185,0,185,0,478.04112489999994,,478.0121764,5,478.04112489999994,478.04112489999994,0.017382100000077116,481.36444679999994,[0.426],[-0.132],[1],[0],[0],[3.3348347999999532],['target'],870809,001,2024-10-02_00h04.02.008,VisualSearchTask,2024.1.5,None,2024-10-02 00h04.11.497712 +0530,
186,0,186,0,481.3952467,,481.3668518,5,481.3952467,481.3952467,0.012503199999969183,483.5160878,[-0.252],[0.27],[1],[0],[0],[2.1366188999999167],['target'],870809,001,2024-10-02_00h04.02.008,VisualSearchTask,2024.1.5,None,2024-10-02 00h04.11.497712 +0530,
187,0,187,0,483.5468616,,483.5186478,5,483.5468616,483.5468616,0.012687900000059926,486.21935719999993,[0.234],[-0.224],[1],[0],[0],[2.6879305999999588],['target'],870809,001,2024-10-02_00h04.02.008,VisualSearchTask,2024.1.5,None,2024-10-02 00h04.11.497712 +0530,
188,0,188,0,486.2671519,,486.2215828,10,486.2671519,486.2671519,0.024551599999995233,487.9720362,[0.118],[0.052],[1],[0],[0],[1.7258204000000887],['target'],870809,001,2024-10-02_00h04.02.008,VisualSearchTask,2024.1.5,None,2024-10-02 00h04.11.497712 +0530,
189,0,189,0,488.01912079999994,,487.97516349999995,10,488.01912079999994,488.01912079999994,0.023426699999959055,490.0569876,[0.058],[0.332],[1],[0],[0],[2.058296700000028],['target'],870809,001,2024-10-02_00h04.02.008,VisualSearchTask,2024.1.5,None,2024-10-02 00h04.11.497712 +0530,
190,0,190,0,490.08792249999993,,490.05934340000005,5,490.08792249999993,490.08792249999993,0.011871499999983826,493.1111583,[-0.464],[0.034],[1],[0],[0],[3.0397206000000097],['target'],870809,001,2024-10-02_00h04.02.008,VisualSearchTask,2024.1.5,None,2024-10-02 00h04.11.497712 +0530,
191,0,191,0,493.14127119999995,,493.1134943,5,493.14127119999995,493.14127119999995,0.012229599999955099,495.93054879999994,[0.344],[0.166],[1],[0],[0],[2.8046439999999393],['target'],870809,001,2024-10-02_00h04.02.008,VisualSearchTask,2024.1.5,None,2024-10-02 00h04.11.497712 +0530,
192,0,192,0,495.97746190000004,,495.9329413,10,495.97746190000004,495.97746190000004,0.023934599999961392,498.4332871,[-0.038],[-0.142],[1],[0],[0],[2.47640100000001],['target'],870809,001,2024-10-02_00h04.02.008,VisualSearchTask,2024.1.5,None,2024-10-02 00h04.11.497712 +0530,
193,0,193,0,498.4640436,,498.43576690000003,5,498.4640436,498.4640436,0.012852199999997538,500.1678291,[0.306],[0.342],[1],[0],[0],[1.7190660999999636],['target'],870809,001,2024-10-02_00h04.02.008,VisualSearchTask,2024.1.5,None,2024-10-02 00h04.11.497712 +0530,
194,0,194,0,500.21555169999993,,500.17016399999994,10,500.21555169999993,500.21555169999993,0.024493900000038593,502.1531117,[0.26],[-0.068],[1],[0],[0],[1.9583227000000534],['target'],870809,001,2024-10-02_00h04.02.008,VisualSearchTask,2024.1.5,None,2024-10-02 00h04.11.497712 +0530,
195,0,195,0,502.18461269999995,,502.15589070000004,5,502.18461269999995,502.18461269999995,0.013429599999994934,504.3065032,[0.464],[0.138],[1],[0],[0],[2.1371034999999665],['target'],870809,001,2024-10-02_00h04.02.008,VisualSearchTask,2024.1.5,None,2024-10-02 00h04.11.497712 +0530,
196,0,196,0,504.35355439999995,,504.30887079999997,10,504.35355439999995,504.35355439999995,0.02367309999999634,505.94134679999996,[0.292],[-0.314],[1],[0],[0],[1.6086162999999942],['target'],870809,001,2024-10-02_00h04.02.008,VisualSearchTask,2024.1.5,None,2024-10-02 00h04.11.497712 +0530,
197,0,197,0,505.97199870000003,,505.9436539,5,505.97199870000003,505.97199870000003,0.011718599999994694,508.8442193,[0.008],[0.22],[1],[0],[0],[2.8887832000000344],['target'],870809,001,2024-10-02_00h04.02.008,VisualSearchTask,2024.1.5,None,2024-10-02 00h04.11.497712 +0530,
198,0,198,0,508.8921522,,508.8467166,10,508.8921522,508.8921522,0.02320350000002236,510.61324970000004,[-0.252],[0.142],[1],[0],[0],[1.743267400000036],['target'],870809,001,2024-10-02_00h04.02.008,VisualSearchTask,2024.1.5,None,2024-10-02 00h04.11.497712 +0530,
199,0,199,0,510.66023549999994,,510.6156123,10,510.66023549999994,510.66023549999994,0.022320499999977983,512.2979943999999,[-0.024],[0.316],[1],[0],[0],[1.6599277000000257],['target'],870809,001,2024-10-02_00h04.02.008,VisualSearchTask,2024.1.5,None,2024-10-02 00h04.11.497712 +0530,
